##TITLE=
##JCAMP-DX=4.24
##DATA TYPE= LINK
##ORIGIN=
##OWNER=
##BLOCKS=2
##TITLE=
##JCAMP-DX=4.24
##DATA TYPE=INFRARED SPECTRUM
##ORIGIN=
##OWNER=
##SAMPLE DESCRIPTION=
##SAMPLING PROCEDURE=
##DATA PROCESSING=
##XUNITS=1/CM
##YUNITS=ABSORBANCE
##XFACTOR= 1.0
##YFACTOR= 0.000001
##FIRSTX=11995.21
##LASTX=3999.691
##FIRSTY=  0.032112
##MINY=  0.032038
##MAXY=  0.529274
##NPOINTS=2074
##XYPOINTS= (XY..XY)
  11995.21,    32112;   11991.36,    32505;   11987.5,    32727;   11983.64,    33481; 
  11979.79,    33798;   11975.93,    33076;   11972.07,    32550;   11968.22,    33189; 
  11964.36,    34209;   11960.5,    34334;   11956.64,    33779;   11952.79,    33532; 
  11948.93,    33671;   11945.07,    33749;   11941.22,    33071;   11937.36,    32037; 
  11933.5,    32481;   11929.65,    34003;   11925.79,    34338;   11921.93,    33423; 
  11918.08,    32760;   11914.22,    33123;   11910.36,    34266;   11906.5,    35059; 
  11902.65,    34598;   11898.79,    33495;   11894.93,    33248;   11891.08,    34046; 
  11887.22,    34397;   11883.36,    34034;   11879.51,    34251;   11875.65,    34795; 
  11871.79,    34599;   11867.93,    34165;   11864.08,    34094;   11860.22,    33945; 
  11856.36,    33747;   11852.51,    34062;   11848.65,    34899;   11844.79,    35760; 
  11840.94,    36143;   11837.08,    35971;   11833.22,    35325;   11829.36,    34500; 
  11825.51,    34331;   11821.65,    34834;   11817.79,    34951;   11813.94,    34685; 
  11810.08,    34963;   11806.22,    35589;   11802.37,    35911;   11798.51,    36050; 
  11794.65,    35980;   11790.79,    35262;   11786.94,    33967;   11783.08,    33030; 
  11779.22,    32798;   11775.37,    32695;   11771.51,    32967;   11767.65,    33874; 
  11763.8,    34913;   11759.94,    35888;   11756.08,    36478;   11752.22,    36323; 
  11748.37,    35975;   11744.51,    36169;   11740.65,    36505;   11736.8,    36334; 
  11732.94,    36290;   11729.08,    36669;   11725.23,    36621;   11721.37,    36252; 
  11717.51,    36179;   11713.66,    36089;   11709.8,    35646;   11705.94,    35219; 
  11702.08,    35332;   11698.23,    35760;   11694.37,    36100;   11690.51,    36456; 
  11686.66,    36448;   11682.8,    36059;   11678.94,    36019;   11675.08,    36061; 
  11671.23,    35798;   11667.37,    35744;   11663.51,    35995;   11659.66,    36224; 
  11655.8,    36749;   11651.94,    37701;   11648.09,    38057;   11644.23,    37255; 
  11640.37,    36244;   11636.52,    35966;   11632.66,    36374;   11628.8,    36598; 
  11624.94,    35973;   11621.09,    35370;   11617.23,    35622;   11613.37,    36135; 
  11609.52,    36631;   11605.66,    37049;   11601.8,    37024;   11597.95,    36870; 
  11594.09,    36858;   11590.23,    36842;   11586.38,    36662;   11582.52,    36307; 
  11578.66,    36270;   11574.8,    36705;   11570.95,    37013;   11567.09,    36945; 
  11563.23,    36835;   11559.38,    36671;   11555.52,    36204;   11551.66,    35979; 
  11547.8,    36592;   11543.95,    37530;   11540.09,    37977;   11536.23,    37822; 
  11532.38,    37542;   11528.52,    37446;   11524.66,    37324;   11520.81,    37032; 
  11516.95,    36667;   11513.09,    36383;   11509.24,    36501;   11505.38,    36974; 
  11501.52,    37305;   11497.66,    37509;   11493.81,    37790;   11489.95,    37975; 
  11486.09,    38147;   11482.24,    38493;   11478.38,    38641;   11474.52,    38184; 
  11470.67,    37514;   11466.81,    37357;   11462.95,    37504;   11459.09,    37201; 
  11455.24,    36837;   11451.38,    37482;   11447.52,    38790;   11443.67,    39327; 
  11439.81,    39006;   11435.95,    39005;   11432.1,    39489;   11428.24,    39693; 
  11424.38,    39452;   11420.52,    39030;   11416.67,    38925;   11412.81,    39567; 
  11408.95,    40162;   11405.1,    39868;   11401.24,    39126;   11397.38,    38595; 
  11393.53,    38723;   11389.67,    39325;   11385.81,    39804;   11381.96,    40207; 
  11378.1,    40289;   11374.24,    39824;   11370.38,    39525;   11366.53,    39542; 
  11362.67,    39525;   11358.81,    39827;   11354.96,    40569;   11351.1,    41074; 
  11347.24,    40998;   11343.38,    40604;   11339.53,    40283;   11335.67,    40301; 
  11331.81,    40446;   11327.96,    40384;   11324.1,    40046;   11320.24,    39555; 
  11316.39,    39225;   11312.53,    39194;   11308.67,    39385;   11304.82,    39569; 
  11300.96,    39624;   11297.1,    40068;   11293.24,    41071;   11289.39,    41810; 
  11285.53,    41821;   11281.67,    41570;   11277.82,    41537;   11273.96,    41653; 
  11270.1,    41505;   11266.25,    41111;   11262.39,    41141;   11258.53,    41715; 
  11254.67,    41914;   11250.82,    41285;   11246.96,    40785;   11243.1,    41086; 
  11239.25,    41391;   11235.39,    41066;   11231.53,    40709;   11227.68,    40837; 
  11223.82,    40934;   11219.96,    40677;   11216.1,    40836;   11212.25,    41708; 
  11208.39,    42330;   11204.53,    42221;   11200.68,    42048;   11196.82,    42092; 
  11192.96,    41910;   11189.11,    41699;   11185.25,    41982;   11181.39,    42388; 
  11177.53,    42490;   11173.68,    42425;   11169.82,    42194;   11165.96,    41833; 
  11162.11,    41780;   11158.25,    42211;   11154.39,    42477;   11150.54,    42082; 
  11146.68,    41697;   11142.82,    42070;   11138.96,    42841;   11135.11,    43132; 
  11131.25,    42803;   11127.39,    42533;   11123.54,    42731;   11119.68,    42997; 
  11115.82,    42797;   11111.97,    42395;   11108.11,    42415;   11104.25,    42878; 
  11100.39,    43336;   11096.54,    43418;   11092.68,    43415;   11088.82,    43784; 
  11084.97,    44034;   11081.11,    43727;   11077.25,    43449;   11073.4,    43342; 
  11069.54,    43021;   11065.68,    42950;   11061.83,    43447;   11057.97,    43748; 
  11054.11,    43515;   11050.25,    43416;   11046.4,    43819;   11042.54,    44464; 
  11038.68,    44886;   11034.83,    44463;   11030.97,    43494;   11027.11,    43259; 
  11023.25,    43923;   11019.4,    44538;   11015.54,    44784;   11011.68,    44750; 
  11007.83,    44393;   11003.97,    44177;   11000.11,    44363;   10996.26,    44313; 
  10992.4,    43978;   10988.54,    44185;   10984.69,    44953;   10980.83,    45229; 
  10976.97,    44812;   10973.11,    44759;   10969.26,    45184;   10965.4,    45265; 
  10961.54,    45056;   10957.69,    45107;   10953.83,    45454;   10949.97,    45689; 
  10946.12,    45444;   10942.26,    44849;   10938.4,    44597;   10934.54,    45044; 
  10930.69,    45472;   10926.83,    45395;   10922.97,    45300;   10919.12,    45450; 
  10915.26,    45773;   10911.4,    46154;   10907.55,    46257;   10903.69,    46138; 
  10899.83,    46058;   10895.97,    45955;   10892.12,    45892;   10888.26,    46053; 
  10884.4,    46220;   10880.55,    45972;   10876.69,    45532;   10872.83,    45444; 
  10868.98,    45717;   10865.12,    46206;   10861.26,    46725;   10857.41,    46891; 
  10853.55,    46626;   10849.69,    46260;   10845.83,    46135;   10841.98,    46413; 
  10838.12,    47010;   10834.26,    47516;   10830.41,    47554;   10826.55,    47233; 
  10822.69,    46858;   10818.83,    46546;   10814.98,    46314;   10811.12,    46409; 
  10807.26,    47001;   10803.41,    47558;   10799.55,    47730;   10795.69,    47897; 
  10791.84,    47981;   10787.98,    47631;   10784.12,    47113;   10780.27,    46829; 
  10776.41,    47041;   10772.55,    47420;   10768.69,    47336;   10764.84,    47329; 
  10760.98,    47813;   10757.12,    47897;   10753.27,    47418;   10749.41,    47228; 
  10745.55,    47523;   10741.7,    47909;   10737.84,    48292;   10733.98,    48694; 
  10730.13,    48920;   10726.27,    48994;   10722.41,    48949;   10718.55,    48687; 
  10714.7,    48520;   10710.84,    48620;   10706.98,    48820;   10703.13,    49068; 
  10699.27,    49323;   10695.41,    49382;   10691.55,    48871;   10687.7,    48251; 
  10683.84,    48459;   10679.98,    49051;   10676.13,    49365;   10672.27,    49553; 
  10668.41,    49536;   10664.56,    49327;   10660.7,    49244;   10656.84,    49308; 
  10652.99,    49398;   10649.13,    49573;   10645.27,    49831;   10641.41,    49924; 
  10637.56,    49813;   10633.7,    49682;   10629.84,    49527;   10625.99,    49440; 
  10622.13,    49539;   10618.27,    49730;   10614.42,    50022;   10610.56,    50283; 
  10606.7,    50415;   10602.84,    50564;   10598.99,    50456;   10595.13,    49976; 
  10591.27,    49741;   10587.42,    50023;   10583.56,    50242;   10579.7,    50088; 
  10575.85,    50146;   10571.99,    50725;   10568.13,    51356;   10564.27,    51621; 
  10560.42,    51424;   10556.56,    51010;   10552.7,    50704;   10548.85,    50490; 
  10544.99,    50364;   10541.13,    50537;   10537.28,    51015;   10533.42,    51390; 
  10529.56,    51325;   10525.71,    51161;   10521.85,    51482;   10517.99,    52121; 
  10514.13,    52358;   10510.28,    52136;   10506.42,    52071;   10502.56,    52197; 
  10498.71,    52061;   10494.85,    51713;   10490.99,    51625;   10487.13,    51951; 
  10483.28,    52237;   10479.42,    52305;   10475.56,    52346;   10471.71,    52251; 
  10467.85,    52145;   10463.99,    52270;   10460.14,    52461;   10456.28,    52623; 
  10452.42,    52789;   10448.56,    52736;   10444.71,    52386;   10440.85,    52219; 
  10436.99,    52379;   10433.14,    52478;   10429.28,    52599;   10425.42,    52790; 
  10421.57,    52733;   10417.71,    52755;   10413.85,    53208;   10410,    53532; 
  10406.14,    53292;   10402.28,    52780;   10398.42,    52376;   10394.57,    52325; 
  10390.71,    52701;   10386.85,    53281;   10383,    53768;   10379.14,    53961; 
  10375.28,    53845;   10371.43,    53728;   10367.57,    53812;   10363.71,    53950; 
  10359.85,    54022;   10356,    54110;   10352.14,    54322;   10348.28,    54407; 
  10344.43,    54134;   10340.57,    53871;   10336.71,    53883;   10332.86,    54039; 
  10329,    54384;   10325.14,    54930;   10321.28,    55336;   10317.43,    55284; 
  10313.57,    54811;   10309.71,    54361;   10305.86,    54385;   10302,    54779; 
  10298.14,    55117;   10294.29,    55161;   10290.43,    54959;   10286.57,    54837; 
  10282.71,    54926;   10278.86,    54875;   10275,    54755;   10271.14,    55135; 
  10267.29,    55769;   10263.43,    55926;   10259.57,    55584;   10255.72,    55179; 
  10251.86,    55059;   10248,    55276;   10244.14,    55554;   10240.29,    55640; 
  10236.43,    55603;   10232.57,    55810;   10228.72,    56339;   10224.86,    56664; 
  10221,    56577;   10217.15,    56496;   10213.29,    56648;   10209.43,    56938; 
  10205.58,    57115;   10201.72,    57006;   10197.86,    56787;   10194,    56701; 
  10190.15,    56842;   10186.29,    57180;   10182.43,    57509;   10178.58,    57471; 
  10174.72,    57092;   10170.86,    56821;   10167,    56754;   10163.15,    56861; 
  10159.29,    57142;   10155.43,    57347;   10151.58,    57440;   10147.72,    57505; 
  10143.86,    57492;   10140.01,    57561;   10136.15,    57789;   10132.29,    57814; 
  10128.44,    57539;   10124.58,    57356;   10120.72,    57437;   10116.86,    57722; 
  10113.01,    58071;   10109.15,    58253;   10105.29,    58279;   10101.44,    58320; 
  10097.58,    58391;   10093.72,    58449;   10089.87,    58569;   10086.01,    58811; 
  10082.15,    58961;   10078.29,    58750;   10074.44,    58443;   10070.58,    58548; 
  10066.72,    58941;   10062.87,    59083;   10059.01,    58921;   10055.15,    58890; 
  10051.3,    59153;   10047.44,    59364;   10043.58,    59258;   10039.72,    59046; 
  10035.87,    59040;   10032.01,    59279;   10028.15,    59534;   10024.3,    59533; 
  10020.44,    59485;   10016.58,    59796;   10012.73,    60186;   10008.87,    60245; 
  10005.01,    60092;   10001.16,    59946;   9997.298,    60002;   9993.441,    60253; 
  9989.584,    60448;   9985.727,    60504;   9981.87,    60410;   9978.014,    60246; 
  9974.156,    60217;   9970.299,    60345;   9966.442,    60654;   9962.585,    61118; 
  9958.729,    61374;   9954.871,    61264;   9951.015,    61073;   9947.157,    60933; 
  9943.301,    60775;   9939.443,    60824;   9935.586,    61243;   9931.729,    61672; 
  9927.872,    61971;   9924.016,    62356;   9920.158,    62591;   9916.302,    62395; 
  9912.444,    62048;   9908.588,    61837;   9904.73,    61757;   9900.873,    61832; 
  9897.017,    62154;   9893.159,    62432;   9889.303,    62309;   9885.445,    62105; 
  9881.589,    62100;   9877.731,    62176;   9873.875,    62324;   9870.018,    62377; 
  9866.16,    62397;   9862.304,    62751;   9858.447,    63149;   9854.59,    63159; 
  9850.732,    62954;   9846.876,    62855;   9843.019,    62993;   9839.162,    63233; 
  9835.305,    63259;   9831.447,    63053;   9827.591,    63072;   9823.734,    63518; 
  9819.877,    63951;   9816.02,    63983;   9812.163,    63802;   9808.306,    63768; 
  9804.449,    63853;   9800.592,    63937;   9796.734,    64137;   9792.878,    64380; 
  9789.021,    64451;   9785.164,    64347;   9781.307,    64269;   9777.45,    64412; 
  9773.593,    64590;   9769.736,    64556;   9765.879,    64472;   9762.022,    64487; 
  9758.165,    64454;   9754.309,    64307;   9750.451,    64371;   9746.594,    64764; 
  9742.737,    64929;   9738.88,    64724;   9735.023,    64776;   9731.166,    65045; 
  9727.31,    64953;   9723.452,    64773;   9719.596,    64987;   9715.738,    65359; 
  9711.881,    65510;   9708.024,    65339;   9704.168,    65164;   9700.311,    65343; 
  9696.453,    65705;   9692.597,    66024;   9688.739,    66278;   9684.883,    66378; 
  9681.025,    66364;   9677.168,    66422;   9673.312,    66536;   9669.455,    66587; 
  9665.598,    66630;   9661.74,    66720;   9657.884,    66796;   9654.026,    66845; 
  9650.17,    66878;   9646.313,    66868;   9642.455,    66895;   9638.599,    67118; 
  9634.742,    67414;   9630.885,    67521;   9627.027,    67582;   9623.171,    67768; 
  9619.313,    67842;   9615.457,    67726;   9611.6,    67687;   9607.743,    67836; 
  9603.886,    68049;   9600.029,    68193;   9596.172,    68209;   9592.314,    68174; 
  9588.458,    68214;   9584.601,    68303;   9580.744,    68360;   9576.887,    68458; 
  9573.03,    68645;   9569.173,    68799;   9565.316,    68894;   9561.459,    68968; 
  9557.602,    68936;   9553.745,    68878;   9549.889,    69038;   9546.031,    69226; 
  9542.174,    69165;   9538.317,    69110;   9534.46,    69231;   9530.604,    69387; 
  9526.746,    69557;   9522.889,    69738;   9519.032,    69850;   9515.176,    69834; 
  9511.318,    69798;   9507.461,    69971;   9503.604,    70227;   9499.747,    70255; 
  9495.891,    70098;   9492.033,    69962;   9488.177,    70043;   9484.319,    70337; 
  9480.463,    70522;   9476.605,    70610;   9472.748,    70822;   9468.892,    70982; 
  9465.034,    70961;   9461.178,    70850;   9457.32,    70707;   9453.464,    70685; 
  9449.606,    70936;   9445.75,    71301;   9441.893,    71445;   9438.035,    71245; 
  9434.179,    70974;   9430.322,    71060;   9426.465,    71426;   9422.607,    71692; 
  9418.751,    71887;   9414.894,    72046;   9411.037,    72013;   9407.18,    71927; 
  9403.322,    71994;   9399.466,    72122;   9395.609,    72226;   9391.752,    72464; 
  9387.895,    72793;   9384.038,    72838;   9380.181,    72599;   9376.324,    72472; 
  9372.467,    72579;   9368.609,    72819;   9364.753,    73078;   9360.896,    73178; 
  9357.039,    73109;   9353.182,    73102;   9349.325,    73220;   9345.468,    73210; 
  9341.611,    73150;   9337.754,    73265;   9333.897,    73367;   9330.04,    73429; 
  9326.184,    73653;   9322.326,    73970;   9318.469,    74188;   9314.612,    74200; 
  9310.755,    74046;   9306.898,    73994;   9303.041,    74244;   9299.185,    74542; 
  9295.327,    74652;   9291.471,    74716;   9287.613,    74794;   9283.756,    74818; 
  9279.899,    74823;   9276.043,    74871;   9272.186,    74944;   9268.328,    75045; 
  9264.472,    75188;   9260.614,    75318;   9256.758,    75480;   9252.9,    75636; 
  9249.043,    75643;   9245.187,    75594;   9241.33,    75588;   9237.473,    75607; 
  9233.615,    75742;   9229.759,    76024;   9225.901,    76199;   9222.045,    76195; 
  9218.188,    76310;   9214.33,    76527;   9210.474,    76498;   9206.617,    76290; 
  9202.76,    76316;   9198.902,    76538;   9195.046,    76674;   9191.188,    76876; 
  9187.332,    77167;   9183.475,    77156;   9179.618,    76899;   9175.761,    76857; 
  9171.904,    77007;   9168.047,    77055;   9164.189,    77084;   9160.333,    77252; 
  9156.476,    77477;   9152.619,    77646;   9148.762,    77691;   9144.905,    77584; 
  9141.048,    77536;   9137.191,    77751;   9133.334,    78064;   9129.477,    78264; 
  9125.62,    78292;   9121.764,    78192;   9117.906,    78158;   9114.049,    78265; 
  9110.192,    78403;   9106.335,    78573;   9102.479,    78793;   9098.621,    78915; 
  9094.764,    78882;   9090.907,    78867;   9087.051,    79048;   9083.193,    79361; 
  9079.336,    79529;   9075.479,    79512;   9071.622,    79560;   9067.766,    79666; 
  9063.908,    79691;   9060.051,    79758;   9056.194,    79957;   9052.338,    80180; 
  9048.48,    80328;   9044.623,    80376;   9040.767,    80381;   9036.909,    80379; 
  9033.053,    80430;   9029.195,    80668;   9025.339,    81031;   9021.481,    81253; 
  9017.625,    81314;   9013.768,    81461;   9009.91,    81607;   9006.054,    81485; 
  9002.196,    81267;   8998.34,    81262;   8994.482,    81460;   8990.626,    81636; 
  8986.769,    81693;   8982.912,    81743;   8979.055,    81886;   8975.197,    82054; 
  8971.341,    82118;   8967.484,    82167;   8963.627,    82320;   8959.77,    82509; 
  8955.913,    82632;   8952.056,    82665;   8948.199,    82679;   8944.342,    82682; 
  8940.484,    82661;   8936.628,    82786;   8932.771,    83109;   8928.914,    83405; 
  8925.057,    83536;   8921.2,    83579;   8917.343,    83595;   8913.486,    83680; 
  8909.629,    83931;   8905.771,    84221;   8901.915,    84356;   8898.059,    84347; 
  8894.201,    84315;   8890.344,    84334;   8886.487,    84448;   8882.63,    84617; 
  8878.773,    84737;   8874.916,    84746;   8871.06,    84668;   8867.202,    84696; 
  8863.346,    84980;   8859.488,    85338;   8855.631,    85455;   8851.774,    85419; 
  8847.917,    85551;   8844.061,    85703;   8840.203,    85720;   8836.347,    85754; 
  8832.489,    85798;   8828.633,    85953;   8824.775,    86302;   8820.918,    86490; 
  8817.062,    86376;   8813.205,    86301;   8809.348,    86413;   8805.49,    86559; 
  8801.634,    86694;   8797.776,    86866;   8793.92,    87106;   8790.063,    87364; 
  8786.205,    87502;   8782.349,    87556;   8778.492,    87694;   8774.635,    87846; 
  8770.777,    87846;   8766.921,    87774;   8763.063,    87838;   8759.207,    88043; 
  8755.35,    88229;   8751.492,    88355;   8747.636,    88451;   8743.779,    88549; 
  8739.922,    88791;   8736.064,    89122;   8732.208,    89281;   8728.351,    89283; 
  8724.494,    89271;   8720.637,    89287;   8716.78,    89463;   8712.923,    89843; 
  8709.066,    90253;   8705.209,    90488;   8701.352,    90466;   8697.495,    90341; 
  8693.638,    90345;   8689.781,    90534;   8685.924,    90747;   8682.067,    90849; 
  8678.21,    90959;   8674.354,    91103;   8670.496,    91131;   8666.639,    91118; 
  8662.782,    91176;   8658.926,    91267;   8655.068,    91353;   8651.211,    91444; 
  8647.354,    91614;   8643.497,    91816;   8639.641,    91965;   8635.783,    92145; 
  8631.926,    92389;   8628.069,    92605;   8624.213,    92696;   8620.355,    92679; 
  8616.498,    92779;   8612.642,    93082;   8608.784,    93345;   8604.928,    93347; 
  8601.07,    93222;   8597.213,    93252;   8593.356,    93449;   8589.5,    93703; 
  8585.643,    93919;   8581.785,    93932;   8577.929,    93884;   8574.071,    94036; 
  8570.215,    94212;   8566.357,    94235;   8562.501,    94317;   8558.644,    94534; 
  8554.787,    94727;   8550.93,    94914;   8547.072,    95136;   8543.216,    95293; 
  8539.359,    95363;   8535.502,    95433;   8531.645,    95559;   8527.788,    95672; 
  8523.931,    95734;   8520.074,    95846;   8516.217,    96016;   8512.359,    96118; 
  8508.503,    96194;   8504.646,    96410;   8500.789,    96703;   8496.932,    96949; 
  8493.075,    97100;   8489.218,    97117;   8485.361,    97125;   8481.504,    97230; 
  8477.646,    97360;   8473.79,    97494;   8469.934,    97694;   8466.076,    97957; 
  8462.219,    98210;   8458.362,    98453;   8454.505,    98618;   8450.648,    98611; 
  8446.791,    98601;   8442.935,    98771;   8439.077,    99050;   8435.221,    99335; 
  8431.363,    99602;   8427.506,    99813;   8423.649,    99966;   8419.792,   100102; 
  8415.936,   100248;   8412.078,   100455;   8408.222,   100714;   8404.364,   100901; 
  8400.508,   100922;   8396.65,   100889;   8392.793,   100986;   8388.937,   101187; 
  8385.08,   101361;   8381.223,   101504;   8377.365,   101672;   8373.509,   101778; 
  8369.651,   101748;   8365.795,   101700;   8361.938,   101774;   8358.08,   102011; 
  8354.224,   102293;   8350.367,   102434;   8346.51,   102460;   8342.652,   102520; 
  8338.796,   102634;   8334.938,   102772;   8331.082,   102947;   8327.225,   103108; 
  8323.367,   103192;   8319.511,   103201;   8315.654,   103181;   8311.797,   103222; 
  8307.939,   103373;   8304.083,   103615;   8300.226,   103841;   8296.369,   103921; 
  8292.512,   103892;   8288.655,   103899;   8284.798,   104033;   8280.941,   104321; 
  8277.084,   104684;   8273.227,   105002;   8269.37,   105157;   8265.513,   105093; 
  8261.656,   104983;   8257.799,   105038;   8253.942,   105288;   8250.085,   105616; 
  8246.229,   105815;   8242.371,   105906;   8238.514,   106045;   8234.657,   106124; 
  8230.801,   106128;   8226.943,   106268;   8223.086,   106499;   8219.229,   106600; 
  8215.372,   106623;   8211.516,   106729;   8207.658,   106879;   8203.801,   107010; 
  8199.944,   107152;   8196.088,   107326;   8192.23,   107492;   8188.373,   107580; 
  8184.517,   107552;   8180.659,   107518;   8176.803,   107628;   8172.945,   107796; 
  8169.088,   107886;   8165.231,   107926;   8161.375,   107934;   8157.518,   107941; 
  8153.661,   108037;   8149.804,   108215;   8145.946,   108367;   8142.09,   108424; 
  8138.232,   108466;   8134.376,   108542;   8130.519,   108527;   8126.662,   108507; 
  8122.805,   108735;   8118.948,   109033;   8115.091,   109058;   8111.233,   108939; 
  8107.377,   109017;   8103.52,   109263;   8099.663,   109383;   8095.806,   109377; 
  8091.949,   109491;   8088.092,   109679;   8084.235,   109773;   8080.378,   109863; 
  8076.521,   110001;   8072.664,   110043;   8068.807,   110028;   8064.95,   110158; 
  8061.093,   110442;   8057.236,   110740;   8053.379,   110917;   8049.522,   110938; 
  8045.665,   110964;   8041.808,   111067;   8037.951,   111115;   8034.094,   111161; 
  8030.237,   111335;   8026.38,   111496;   8022.523,   111564;   8018.666,   111661; 
  8014.809,   111782;   8010.952,   111918;   8007.095,   112109;   8003.238,   112260; 
  7999.381,   112337;   7995.524,   112425;   7991.667,   112497;   7987.811,   112492; 
  7983.953,   112544;   7980.097,   112758;   7976.239,   113005;   7972.382,   113240; 
  7968.525,   113485;   7964.668,   113595;   7960.812,   113544;   7956.954,   113483; 
  7953.098,   113527;   7949.24,   113764;   7945.384,   114102;   7941.526,   114282; 
  7937.669,   114298;   7933.813,   114354;   7929.956,   114468;   7926.099,   114543; 
  7922.242,   114589;   7918.385,   114695;   7914.527,   114895;   7910.671,   115119; 
  7906.813,   115252;   7902.957,   115300;   7899.1,   115375;   7895.243,   115498; 
  7891.386,   115656;   7887.529,   115808;   7883.672,   115878;   7879.815,   115985; 
  7875.958,   116250;   7872.101,   116527;   7868.244,   116678;   7864.387,   116709; 
  7860.53,   116688;   7856.673,   116754;   7852.816,   116959;   7848.959,   117191; 
  7845.102,   117329;   7841.245,   117382;   7837.388,   117450;   7833.531,   117581; 
  7829.674,   117816;   7825.817,   118097;   7821.96,   118267;   7818.103,   118332; 
  7814.246,   118361;   7810.389,   118387;   7806.532,   118456;   7802.675,   118606; 
  7798.818,   118827;   7794.961,   119054;   7791.104,   119264;   7787.247,   119445; 
  7783.39,   119525;   7779.533,   119523;   7775.676,   119546;   7771.819,   119646; 
  7767.962,   119808;   7764.105,   120024;   7760.249,   120224;   7756.392,   120272; 
  7752.534,   120236;   7748.677,   120317;   7744.82,   120536;   7740.963,   120838; 
  7737.106,   121158;   7733.25,   121308;   7729.393,   121240;   7725.536,   121191; 
  7721.679,   121344;   7717.822,   121591;   7713.964,   121785;   7710.107,   122000; 
  7706.25,   122254;   7702.394,   122378;   7698.537,   122359;   7694.68,   122378; 
  7690.823,   122528;   7686.966,   122756;   7683.109,   123040;   7679.252,   123327; 
  7675.395,   123492;   7671.538,   123531;   7667.681,   123561;   7663.824,   123631; 
  7659.967,   123731;   7656.11,   123907;   7652.253,   124137;   7648.396,   124282; 
  7644.539,   124329;   7640.682,   124428;   7636.825,   124674;   7632.968,   124932; 
  7629.111,   125050;   7625.254,   125105;   7621.397,   125183;   7617.54,   125278; 
  7613.683,   125454;   7609.826,   125717;   7605.969,   125911;   7602.112,   125992; 
  7598.255,   126094;   7594.398,   126242;   7590.541,   126364;   7586.684,   126468; 
  7582.827,   126600;   7578.97,   126783;   7575.113,   127030;   7571.256,   127253; 
  7567.399,   127358;   7563.542,   127443;   7559.685,   127584;   7555.828,   127733; 
  7551.971,   127882;   7548.114,   128073;   7544.257,   128343;   7540.4,   128589; 
  7536.543,   128700;   7532.687,   128790;   7528.83,   128931;   7524.973,   129033; 
  7521.115,   129156;   7517.258,   129441;   7513.401,   129763;   7509.544,   129917; 
  7505.688,   129993;   7501.831,   130134;   7497.974,   130242;   7494.117,   130302; 
  7490.26,   130477;   7486.403,   130753;   7482.545,   130950;   7478.688,   131062; 
  7474.832,   131253;   7470.975,   131527;   7467.118,   131772;   7463.261,   131960; 
  7459.404,   132136;   7455.547,   132352;   7451.69,   132582;   7447.833,   132746; 
  7443.976,   132843;   7440.119,   132967;   7436.262,   133192;   7432.405,   133498; 
  7428.548,   133777;   7424.691,   133924;   7420.834,   134016;   7416.977,   134188; 
  7413.12,   134425;   7409.263,   134662;   7405.406,   134893;   7401.549,   135109; 
  7397.692,   135272;   7393.835,   135419;   7389.978,   135620;   7386.121,   135829; 
  7382.264,   136033;   7378.407,   136332;   7374.55,   136685;   7370.693,   136949; 
  7366.836,   137154;   7362.979,   137360;   7359.122,   137577;   7355.265,   137811; 
  7351.408,   138040;   7347.551,   138248;   7343.694,   138509;   7339.837,   138924; 
  7335.98,   139266;   7332.124,   139261;   7328.266,   139205;   7324.409,   139586; 
  7320.552,   140185;   7316.695,   140536;   7312.838,   140666;   7308.981,   140865; 
  7305.125,   141179;   7301.268,   141385;   7297.411,   141485;   7293.554,   141712; 
  7289.696,   142069;   7285.839,   142386;   7281.982,   142647;   7278.125,   142917; 
  7274.269,   143184;   7270.412,   143379;   7266.555,   143501;   7262.698,   143661; 
  7258.841,   143907;   7254.984,   144168;   7251.126,   144402;   7247.27,   144516; 
  7243.413,   144544;   7239.556,   144682;   7235.699,   144890;   7231.842,   145173; 
  7227.985,   145621;   7224.128,   146098;   7220.271,   146506;   7216.414,   146820; 
  7212.557,   147013;   7208.7,   147060;   7204.843,   147087;   7200.986,   147318; 
  7197.129,   147744;   7193.272,   148271;   7189.415,   148751;   7185.558,   148968; 
  7181.701,   149096;   7177.844,   149421;   7173.987,   149698;   7170.13,   149777; 
  7166.273,   149922;   7162.416,   150213;   7158.559,   150549;   7154.702,   150877; 
  7150.845,   151071;   7146.988,   151063;   7143.131,   151012;   7139.274,   151207; 
  7135.417,   151643;   7131.56,   151991;   7127.703,   152168;   7123.846,   152257; 
  7119.989,   152283;   7116.132,   152410;   7112.275,   152684;   7108.418,   152963; 
  7104.562,   153252;   7100.705,   153534;   7096.847,   153765;   7092.99,   154033; 
  7089.133,   154402;   7085.276,   154829;   7081.419,   155208;   7077.563,   155521; 
  7073.706,   155916;   7069.849,   156454;   7065.992,   156958;   7062.135,   157238; 
  7058.277,   157300;   7054.42,   157276;   7050.563,   157249;   7046.707,   157290; 
  7042.85,   157496;   7038.993,   157808;   7035.136,   158140;   7031.279,   158477; 
  7027.422,   158723;   7023.565,   158877;   7019.708,   159098;   7015.851,   159400; 
  7011.994,   159675;   7008.137,   159946;   7004.28,   160245;   7000.423,   160529; 
  6996.566,   160841;   6992.709,   161191;   6988.852,   161463;   6984.995,   161675; 
  6981.138,   161922;   6977.281,   162165;   6973.424,   162393;   6969.567,   162663; 
  6965.71,   162946;   6961.853,   163172;   6957.996,   163349;   6954.139,   163550; 
  6950.282,   163826;   6946.425,   164221;   6942.568,   164669;   6938.711,   164953; 
  6934.854,   165029;   6930.997,   165069;   6927.14,   165177;   6923.283,   165339; 
  6919.426,   165546;   6915.569,   165837;   6911.712,   166119;   6907.855,   166261; 
  6903.999,   166350;   6900.141,   166526;   6896.284,   166794;   6892.427,   167082; 
  6888.57,   167297;   6884.713,   167413;   6880.856,   167487;   6877,   167618; 
  6873.143,   167884;   6869.286,   168223;   6865.429,   168515;   6861.571,   168798; 
  6857.714,   169108;   6853.857,   169360;   6850,   169552;   6846.144,   169729; 
  6842.287,   169866;   6838.43,   170009;   6834.573,   170261;   6830.716,   170576; 
  6826.859,   170827;   6823.001,   171018;   6819.145,   171220;   6815.288,   171457; 
  6811.431,   171765;   6807.574,   172104;   6803.717,   172390;   6799.86,   172594; 
  6796.003,   172717;   6792.146,   172834;   6788.289,   173047;   6784.432,   173349; 
  6780.575,   173626;   6776.718,   173778;   6772.861,   173845;   6769.004,   173966; 
  6765.147,   174220;   6761.29,   174589;   6757.433,   174963;   6753.576,   175202; 
  6749.719,   175354;   6745.862,   175571;   6742.005,   175820;   6738.148,   176039; 
  6734.291,   176246;   6730.434,   176437;   6726.577,   176574;   6722.72,   176647; 
  6718.863,   176748;   6715.006,   177004;   6711.149,   177331;   6707.292,   177562; 
  6703.435,   177732;   6699.578,   177924;   6695.721,   178151;   6691.864,   178391; 
  6688.007,   178571;   6684.15,   178702;   6680.293,   178862;   6676.437,   179023; 
  6672.58,   179133;   6668.722,   179244;   6664.865,   179438;   6661.008,   179713; 
  6657.151,   180031;   6653.294,   180338;   6649.438,   180547;   6645.581,   180597; 
  6641.724,   180603;   6637.867,   180810;   6634.01,   181206;   6630.152,   181517; 
  6626.295,   181668;   6622.438,   181808;   6618.582,   181955;   6614.725,   182042; 
  6610.868,   182180;   6607.011,   182472;   6603.154,   182783;   6599.297,   182966; 
  6595.44,   183098;   6591.583,   183283;   6587.726,   183503;   6583.869,   183731; 
  6580.012,   183904;   6576.155,   184009;   6572.298,   184136;   6568.441,   184313; 
  6564.584,   184506;   6560.727,   184730;   6556.87,   184999;   6553.013,   185238; 
  6549.156,   185417;   6545.299,   185621;   6541.442,   185878;   6537.585,   186121; 
  6533.728,   186313;   6529.871,   186474;   6526.014,   186620;   6522.157,   186778; 
  6518.3,   186989;   6514.443,   187210;   6510.586,   187404;   6506.729,   187636; 
  6502.872,   187932;   6499.015,   188192;   6495.158,   188360;   6491.301,   188504; 
  6487.444,   188691;   6483.587,   188931;   6479.73,   189213;   6475.873,   189508; 
  6472.016,   189759;   6468.159,   189910;   6464.302,   190032;   6460.445,   190288; 
  6456.588,   190623;   6452.731,   190866;   6448.875,   191048;   6445.018,   191210; 
  6441.161,   191321;   6437.303,   191467;   6433.446,   191707;   6429.589,   191981; 
  6425.732,   192267;   6421.875,   192587;   6418.019,   192892;   6414.162,   193121; 
  6410.305,   193311;   6406.448,   193506;   6402.591,   193678;   6398.733,   193844; 
  6394.876,   194075;   6391.02,   194320;   6387.163,   194499;   6383.306,   194674; 
  6379.449,   194880;   6375.592,   195114;   6371.735,   195392;   6367.878,   195613; 
  6364.021,   195743;   6360.164,   195978;   6356.307,   196351;   6352.45,   196610; 
  6348.593,   196673;   6344.736,   196736;   6340.879,   196906;   6337.022,   197193; 
  6333.165,   197585;   6329.308,   197912;   6325.451,   198070;   6321.594,   198226; 
  6317.737,   198440;   6313.88,   198589;   6310.023,   198718;   6306.166,   198900; 
  6302.309,   199089;   6298.452,   199366;   6294.595,   199799;   6290.738,   200185; 
  6286.881,   200398;   6283.024,   200578;   6279.167,   200764;   6275.31,   200894; 
  6271.453,   201063;   6267.596,   201272;   6263.739,   201439;   6259.882,   201618; 
  6256.025,   201783;   6252.168,   201889;   6248.312,   202070;   6244.454,   202367; 
  6240.597,   202605;   6236.74,   202738;   6232.883,   202951;   6229.026,   203258; 
  6225.169,   203469;   6221.313,   203567;   6217.456,   203670;   6213.599,   203776; 
  6209.742,   203852;   6205.884,   203983;   6202.027,   204227;   6198.17,   204533; 
  6194.313,   204794;   6190.457,   204978;   6186.6,   205142;   6182.743,   205299; 
  6178.886,   205451;   6175.029,   205654;   6171.172,   205943;   6167.314,   206258; 
  6163.458,   206493;   6159.601,   206654;   6155.744,   206831;   6151.887,   207067; 
  6148.03,   207375;   6144.173,   207755;   6140.316,   208172;   6136.459,   208522; 
  6132.602,   208704;   6128.745,   208787;   6124.888,   208950;   6121.031,   209242; 
  6117.174,   209542;   6113.317,   209806;   6109.46,   210152;   6105.603,   210550; 
  6101.746,   210829;   6097.889,   211020;   6094.032,   211240;   6090.175,   211419; 
  6086.318,   211533;   6082.461,   211707;   6078.604,   211944;   6074.747,   212220; 
  6070.89,   212538;   6067.033,   212824;   6063.176,   213049;   6059.319,   213254; 
  6055.462,   213454;   6051.605,   213722;   6047.748,   214095;   6043.891,   214409; 
  6040.034,   214615;   6036.177,   214914;   6032.32,   215325;   6028.463,   215666; 
  6024.606,   215937;   6020.75,   216281;   6016.893,   216696;   6013.036,   217077; 
  6009.178,   217419;   6005.321,   217773;   6001.464,   218166;   5997.607,   218607; 
  5993.75,   219066;   5989.894,   219458;   5986.037,   219763;   5982.18,   220095; 
  5978.323,   220559;   5974.466,   221134;   5970.608,   221714;   5966.751,   222221; 
  5962.895,   222639;   5959.038,   223022;   5955.181,   223434;   5951.324,   223885; 
  5947.467,   224409;   5943.61,   225037;   5939.753,   225721;   5935.896,   226444; 
  5932.039,   227253;   5928.182,   228159;   5924.325,   229212;   5920.468,   230547; 
  5916.611,   232081;   5912.754,   233452;   5908.897,   234421;   5905.04,   235058; 
  5901.183,   235499;   5897.326,   235794;   5893.469,   236034;   5889.612,   236344; 
  5885.755,   236800;   5881.898,   237508;   5878.041,   238501;   5874.184,   239582; 
  5870.327,   240576;   5866.47,   241482;   5862.613,   242186;   5858.756,   242543; 
  5854.899,   242699;   5851.042,   242826;   5847.185,   242889;   5843.328,   242883; 
  5839.471,   242862;   5835.614,   242836;   5831.757,   242888;   5827.9,   243140; 
  5824.043,   243600;   5820.187,   244236;   5816.329,   244953;   5812.472,   245631; 
  5808.615,   246271;   5804.758,   246952;   5800.901,   247645;   5797.044,   248198; 
  5793.188,   248532;   5789.331,   248625;   5785.474,   248502;   5781.617,   248354; 
  5777.759,   248341;   5773.902,   248466;   5770.045,   248751;   5766.188,   249149; 
  5762.332,   249516;   5758.475,   249789;   5754.618,   249912;   5750.761,   249746; 
  5746.904,   249296;   5743.047,   248772;   5739.189,   248339;   5735.333,   248021; 
  5731.476,   247795;   5727.619,   247686;   5723.762,   247700;   5719.905,   247723; 
  5716.048,   247740;   5712.191,   247862;   5708.334,   248075;   5704.477,   248338; 
  5700.62,   248635;   5696.763,   248845;   5692.906,   248924;   5689.049,   249042; 
  5685.192,   249277;   5681.335,   249587;   5677.478,   250030;   5673.621,   250545; 
  5669.764,   250912;   5665.907,   251168;   5662.05,   251487;   5658.193,   251830; 
  5654.336,   252117;   5650.479,   252337;   5646.622,   252499;   5642.765,   252650; 
  5638.908,   252766;   5635.051,   252813;   5631.194,   252828;   5627.337,   252842; 
  5623.48,   252949;   5619.623,   253209;   5615.766,   253489;   5611.909,   253690; 
  5608.052,   253825;   5604.195,   253849;   5600.338,   253816;   5596.481,   254009; 
  5592.625,   254549;   5588.768,   255204;   5584.91,   255704;   5581.053,   255997; 
  5577.196,   256156;   5573.339,   256290;   5569.482,   256557;   5565.625,   257003; 
  5561.769,   257517;   5557.912,   257963;   5554.055,   258246;   5550.198,   258419; 
  5546.34,   258627;   5542.483,   258962;   5538.626,   259442;   5534.77,   260020; 
  5530.913,   260564;   5527.056,   260908;   5523.199,   261051;   5519.342,   261213; 
  5515.485,   261599;   5511.628,   262165;   5507.771,   262667;   5503.914,   263004; 
  5500.057,   263254;   5496.2,   263412;   5492.343,   263598;   5488.486,   264106; 
  5484.629,   264772;   5480.772,   265173;   5476.915,   265352;   5473.058,   265568; 
  5469.201,   265797;   5465.344,   266056;   5461.487,   266487;   5457.63,   266914; 
  5453.773,   267137;   5449.916,   267267;   5446.059,   267397;   5442.202,   267571; 
  5438.345,   267845;   5434.488,   268130;   5430.631,   268390;   5426.774,   268777; 
  5422.917,   269218;   5419.06,   269422;   5415.203,   269381;   5411.346,   269542; 
  5407.489,   270154;   5403.632,   270733;   5399.775,   270920;   5395.918,   270969; 
  5392.061,   271174;   5388.204,   271463;   5384.347,   271828;   5380.49,   272223; 
  5376.633,   272561;   5372.776,   272975;   5368.919,   273433;   5365.063,   273803; 
  5361.206,   274095;   5357.349,   274341;   5353.491,   274667;   5349.634,   275054; 
  5345.777,   275296;   5341.92,   275463;   5338.063,   275839;   5334.207,   276426; 
  5330.35,   277069;   5326.493,   277814;   5322.636,   278551;   5318.779,   279086; 
  5314.921,   279469;   5311.064,   279822;   5307.208,   280341;   5303.351,   281076; 
  5299.494,   281820;   5295.637,   282474;   5291.78,   283103;   5287.923,   283828; 
  5284.066,   284717;   5280.209,   285713;   5276.352,   286593;   5272.495,   287217; 
  5268.638,   287815;   5264.781,   288677;   5260.924,   289723;   5257.067,   290706; 
  5253.21,   291577;   5249.353,   292386;   5245.496,   293270;   5241.639,   294267; 
  5237.782,   295197;   5233.925,   295931;   5230.068,   296493;   5226.211,   297179; 
  5222.354,   298151;   5218.497,   299028;   5214.64,   299497;   5210.783,   299692; 
  5206.926,   299991;   5203.069,   300564;   5199.212,   301202;   5195.355,   301718; 
  5191.498,   302042;   5187.641,   302181;   5183.784,   302272;   5179.927,   302503; 
  5176.07,   302906;   5172.213,   303390;   5168.356,   303841;   5164.5,   304149; 
  5160.642,   304312;   5156.785,   304406;   5152.928,   304523;   5149.071,   304713; 
  5145.214,   304952;   5141.357,   305235;   5137.5,   305561;   5133.644,   305848; 
  5129.787,   306058;   5125.93,   306300;   5122.072,   306678;   5118.215,   307087; 
  5114.358,   307375;   5110.501,   307585;   5106.645,   307826;   5102.788,   308091; 
  5098.931,   308351;   5095.074,   308720;   5091.217,   309267;   5087.36,   309791; 
  5083.503,   310197;   5079.646,   310670;   5075.789,   311196;   5071.932,   311658; 
  5068.075,   312162;   5064.218,   312713;   5060.361,   313184;   5056.504,   313629; 
  5052.647,   314172;   5048.79,   314822;   5044.933,   315516;   5041.076,   316189; 
  5037.219,   316799;   5033.362,   317393;   5029.505,   318057;   5025.648,   318793; 
  5021.791,   319605;   5017.934,   320464;   5014.077,   321254;   5010.22,   321934; 
  5006.363,   322596;   5002.506,   323366;   4998.649,   324349;   4994.792,   325511; 
  4990.935,   326660;   4987.078,   327710;   4983.221,   328715;   4979.364,   329680; 
  4975.507,   330620;   4971.65,   331697;   4967.793,   333088;   4963.936,   334658; 
  4960.079,   336112;   4956.222,   337364;   4952.365,   338483;   4948.508,   339632; 
  4944.651,   340966;   4940.794,   342507;   4936.938,   344201;   4933.081,   345950; 
  4929.224,   347635;   4925.366,   349140;   4921.509,   350460;   4917.652,   351787; 
  4913.795,   353276;   4909.938,   354868;   4906.082,   356415;   4902.225,   357882; 
  4898.368,   359262;   4894.511,   360459;   4890.654,   361627;   4886.796,   363089; 
  4882.939,   364778;   4879.083,   366404;   4875.226,   367840;   4871.369,   369051; 
  4867.512,   370103;   4863.655,   371240;   4859.798,   372586;   4855.941,   373962; 
  4852.084,   375249;   4848.227,   376452;   4844.37,   377492;   4840.513,   378444; 
  4836.656,   379563;   4832.799,   380929;   4828.942,   382359;   4825.085,   383664; 
  4821.228,   384834;   4817.371,   385952;   4813.514,   387072;   4809.657,   388243; 
  4805.8,   389564;   4801.943,   391032;   4798.086,   392424;   4794.229,   393542; 
  4790.372,   394455;   4786.515,   395450;   4782.658,   396665;   4778.801,   397951; 
  4774.944,   399204;   4771.087,   400405;   4767.23,   401544;   4763.373,   402660; 
  4759.516,   403801;   4755.659,   405144;   4751.802,   406750;   4747.945,   408329; 
  4744.088,   409711;   4740.231,   411040;   4736.375,   412500;   4732.517,   414183; 
  4728.66,   416006;   4724.803,   417765;   4720.946,   419385;   4717.089,   420974; 
  4713.232,   422646;   4709.375,   424456;   4705.519,   426270;   4701.662,   427765; 
  4697.805,   428817;   4693.947,   429617;   4690.09,   430399;   4686.233,   431170; 
  4682.376,   431770;   4678.52,   432133;   4674.663,   432286;   4670.806,   432238; 
  4666.949,   432006;   4663.092,   431562;   4659.235,   430897;   4655.377,   430057; 
  4651.521,   428993;   4647.664,   427750;   4643.807,   426517;   4639.95,   425252; 
  4636.093,   423783;   4632.236,   422070;   4628.379,   420101;   4624.522,   417935; 
  4620.665,   415795;   4616.808,   413712;   4612.951,   411493;   4609.094,   409169; 
  4605.237,   406864;   4601.38,   404602;   4597.523,   402539;   4593.666,   400744; 
  4589.809,   399102;   4585.952,   397581;   4582.095,   396171;   4578.238,   394765; 
  4574.381,   393354;   4570.524,   392078;   4566.667,   390898;   4562.81,   389656; 
  4558.953,   388407;   4555.096,   387236;   4551.239,   386136;   4547.382,   385241; 
  4543.525,   384699;   4539.668,   384453;   4535.811,   384376;   4531.954,   384435; 
  4528.097,   384448;   4524.24,   384067;   4520.383,   383371;   4516.526,   382833; 
  4512.669,   382599;   4508.813,   382476;   4504.956,   382463;   4501.098,   382654; 
  4497.241,   382909;   4493.384,   383193;   4489.527,   383768;   4485.67,   384677; 
  4481.813,   385618;   4477.957,   386365;   4474.1,   387043;   4470.243,   387992; 
  4466.386,   389303;   4462.528,   390774;   4458.671,   392187;   4454.814,   393464; 
  4450.958,   394827;   4447.101,   396513;   4443.244,   398481;   4439.387,   400742; 
  4435.53,   403386;   4431.673,   406272;   4427.816,   409266;   4423.958,   412471; 
  4420.102,   415889;   4416.245,   419340;   4412.388,   422797;   4408.531,   426228; 
  4404.674,   429411;   4400.817,   432345;   4396.96,   435161;   4393.103,   437488; 
  4389.246,   438754;   4385.389,   439126;   4381.532,   439189;   4377.675,   439098; 
  4373.818,   438950;   4369.961,   439027;   4366.104,   439384;   4362.247,   440026; 
  4358.39,   441127;   4354.533,   442960;   4350.676,   445713;   4346.819,   449325; 
  4342.962,   453721;   4339.105,   458741;   4335.248,   463722;   4331.391,   467857; 
  4327.534,   470854;   4323.677,   472801;   4319.82,   474000;   4315.963,   474892; 
  4312.106,   475589;   4308.249,   475912;   4304.392,   475784;   4300.535,   475415; 
  4296.678,   475305;   4292.821,   475873;   4288.964,   477084;   4285.107,   478587; 
  4281.25,   480258;   4277.394,   482073;   4273.537,   483826;   4269.679,   485615; 
  4265.822,   487515;   4261.965,   489461;   4258.108,   491900;   4254.251,   494971; 
  4250.395,   497846;   4246.538,   499676;   4242.681,   500319;   4238.824,   500103; 
  4234.967,   499530;   4231.109,   499177;   4227.252,   499186;   4223.396,   499484; 
  4219.539,   500092;   4215.682,   500522;   4211.825,   500466;   4207.968,   500338; 
  4204.111,   500373;   4200.254,   500565;   4196.397,   500505;   4192.54,   499534; 
  4188.683,   498389;   4184.826,   498429;   4180.969,   499689;   4177.112,   501534; 
  4173.255,   503201;   4169.398,   504084;   4165.541,   504348;   4161.684,   504413; 
  4157.827,   504462;   4153.97,   504325;   4150.113,   504260;   4146.256,   504625; 
  4142.399,   504735;   4138.542,   504853;   4134.685,   506033;   4130.828,   507362; 
  4126.971,   508016;   4123.114,   508758;   4119.257,   509137;   4115.4,   508673; 
  4111.543,   508934;   4107.686,   510383;   4103.829,   511490;   4099.972,   511188; 
  4096.115,   510160;   4092.258,   510380;   4088.401,   512487;   4084.544,   514518; 
  4080.688,   514945;   4076.831,   515403;   4072.973,   517952;   4069.116,   521800; 
  4065.259,   525259;   4061.402,   527408;   4057.545,   527578;   4053.688,   525558; 
  4049.832,   523044;   4045.975,   522477;   4042.118,   522221;   4038.261,   519176; 
  4034.403,   516548;   4030.546,   517616;   4026.689,   519141;   4022.833,   520124; 
  4018.976,   523055;   4015.119,   526997;   4011.262,   529274;   4007.405,   527835; 
  4003.548,   523828;   3999.691,   521750; 
##END=
##TITLE=
##JCAMP-DX=4.24
##DATA TYPE=INFRARED SPECTRUM
##ORIGIN=
##OWNER=
##SAMPLE DESCRIPTION=
##SAMPLING PROCEDURE=
##DATA PROCESSING=
##XUNITS=1/CM
##YUNITS=ABSORBANCE
##XFACTOR= 1.0
##YFACTOR= 0.000001
##FIRSTX=11995.21
##LASTX=3999.691
##FIRSTY=  0.193929
##MINY=  0.190318
##MAXY=  1.205558
##NPOINTS=2074
##XYPOINTS= (XY..XY)
  11995.21,   193928;   11991.36,   193401;   11987.5,   192462;   11983.64,   192463; 
  11979.79,   192519;   11975.93,   191981;   11972.07,   191954;   11968.22,   192967; 
  11964.36,   193822;   11960.5,   193621;   11956.64,   193269;   11952.79,   193425; 
  11948.93,   193063;   11945.07,   191704;   11941.22,   190455;   11937.36,   190318; 
  11933.5,   191423;   11929.65,   192868;   11925.79,   193437;   11921.93,   193408; 
  11918.08,   193654;   11914.22,   194101;   11910.36,   194390;   11906.5,   194144; 
  11902.65,   193183;   11898.79,   192268;   11894.93,   192332;   11891.08,   193196; 
  11887.22,   193641;   11883.36,   192940;   11879.51,   192225;   11875.65,   192393; 
  11871.79,   192447;   11867.93,   192435;   11864.08,   193554;   11860.22,   194902; 
  11856.36,   194799;   11852.51,   193829;   11848.65,   193557;   11844.79,   193921; 
  11840.94,   194142;   11837.08,   194149;   11833.22,   193511;   11829.36,   192090; 
  11825.51,   191389;   11821.65,   192344;   11817.79,   193639;   11813.94,   193954; 
  11810.08,   193881;   11806.22,   194095;   11802.37,   194153;   11798.51,   194006; 
  11794.65,   193940;   11790.79,   193735;   11786.94,   193183;   11783.08,   192385; 
  11779.22,   191785;   11775.37,   191750;   11771.51,   191964;   11767.65,   192185; 
  11763.8,   192597;   11759.94,   192782;   11756.08,   192619;   11752.22,   193046; 
  11748.37,   194149;   11744.51,   194886;   11740.65,   194784;   11736.8,   194250; 
  11732.94,   193811;   11729.08,   193598;   11725.23,   193393;   11721.37,   193394; 
  11717.51,   193796;   11713.66,   193867;   11709.8,   193350;   11705.94,   192931; 
  11702.08,   192803;   11698.23,   192674;   11694.37,   192606;   11690.51,   192926; 
  11686.66,   193315;   11682.8,   193445;   11678.94,   193483;   11675.08,   192988; 
  11671.23,   191790;   11667.37,   190941;   11663.51,   191208;   11659.66,   192167; 
  11655.8,   193085;   11651.94,   193690;   11648.09,   193634;   11644.23,   192834; 
  11640.37,   192316;   11636.52,   192674;   11632.66,   193218;   11628.8,   193304; 
  11624.94,   192791;   11621.09,   192411;   11617.23,   192803;   11613.37,   193140; 
  11609.52,   193027;   11605.66,   192870;   11601.8,   192741;   11597.95,   192884; 
  11594.09,   193064;   11590.23,   192763;   11586.38,   192492;   11582.52,   192765; 
  11578.66,   193055;   11574.8,   192832;   11570.95,   192651;   11567.09,   193210; 
  11563.23,   193954;   11559.38,   194115;   11555.52,   193924;   11551.66,   193647; 
  11547.8,   193395;   11543.95,   193474;   11540.09,   193683;   11536.23,   193720; 
  11532.38,   193713;   11528.52,   193599;   11524.66,   193268;   11520.81,   193045; 
  11516.95,   193096;   11513.09,   193145;   11509.24,   193234;   11505.38,   193430; 
  11501.52,   193574;   11497.66,   193981;   11493.81,   194484;   11489.95,   194348; 
  11486.09,   194018;   11482.24,   194174;   11478.38,   194349;   11474.52,   194118; 
  11470.67,   193883;   11466.81,   194102;   11462.95,   194365;   11459.09,   193977; 
  11455.24,   193577;   11451.38,   194210;   11447.52,   195160;   11443.67,   195350; 
  11439.81,   195035;   11435.95,   194753;   11432.1,   194874;   11428.24,   195548; 
  11424.38,   196406;   11420.52,   196762;   11416.67,   196368;   11412.81,   196042; 
  11408.95,   196148;   11405.1,   196015;   11401.24,   195528;   11397.38,   195253; 
  11393.53,   195622;   11389.67,   196230;   11385.81,   196550;   11381.96,   196811; 
  11378.1,   196875;   11374.24,   196701;   11370.38,   196964;   11366.53,   197461; 
  11362.67,   197579;   11358.81,   197664;   11354.96,   198189;   11351.1,   198890; 
  11347.24,   199115;   11343.38,   198599;   11339.53,   197818;   11335.67,   197604; 
  11331.81,   198183;   11327.96,   198782;   11324.1,   198903;   11320.24,   198815; 
  11316.39,   198603;   11312.53,   198405;   11308.67,   198636;   11304.82,   199110; 
  11300.96,   199337;   11297.1,   199476;   11293.24,   199794;   11289.39,   200037; 
  11285.53,   200057;   11281.67,   200167;   11277.82,   200558;   11273.96,   200759; 
  11270.1,   200518;   11266.25,   200434;   11262.39,   200826;   11258.53,   201395; 
  11254.67,   201804;   11250.82,   201896;   11246.96,   201866;   11243.1,   201858; 
  11239.25,   201802;   11235.39,   201841;   11231.53,   201950;   11227.68,   201923; 
  11223.82,   202007;   11219.96,   202254;   11216.1,   202553;   11212.25,   203170; 
  11208.39,   203763;   11204.53,   203930;   11200.68,   203919;   11196.82,   203820; 
  11192.96,   203820;   11189.11,   204126;   11185.25,   204551;   11181.39,   204936; 
  11177.53,   205185;   11173.68,   205435;   11169.82,   205719;   11165.96,   205415; 
  11162.11,   204605;   11158.25,   204418;   11154.39,   204979;   11150.54,   205181; 
  11146.68,   204785;   11142.82,   204782;   11138.96,   205444;   11135.11,   206169; 
  11131.25,   206632;   11127.39,   206638;   11123.54,   206451;   11119.68,   206588; 
  11115.82,   206737;   11111.97,   206575;   11108.11,   206490;   11104.25,   206803; 
  11100.39,   207448;   11096.54,   208042;   11092.68,   208061;   11088.82,   207663; 
  11084.97,   207662;   11081.11,   208192;   11077.25,   208528;   11073.4,   208297; 
  11069.54,   207986;   11065.68,   208186;   11061.83,   208901;   11057.97,   209541; 
  11054.11,   209589;   11050.25,   209594;   11046.4,   210329;   11042.54,   211378; 
  11038.68,   211894;   11034.83,   211534;   11030.97,   210796;   11027.11,   210614; 
  11023.25,   211066;   11019.4,   211638;   11015.54,   212022;   11011.68,   212047; 
  11007.83,   211841;   11003.97,   211831;   11000.11,   212235;   10996.26,   212577; 
  10992.4,   212561;   10988.54,   212957;   10984.69,   213938;   10980.83,   214435; 
  10976.97,   214385;   10973.11,   214906;   10969.26,   215852;   10965.4,   216004; 
  10961.54,   215592;   10957.69,   215809;   10953.83,   216529;   10949.97,   217023; 
  10946.12,   217196;   10942.26,   217160;   10938.4,   217271;   10934.54,   217711; 
  10930.69,   218127;   10926.83,   218546;   10922.97,   219136;   10919.12,   219583; 
  10915.26,   219837;   10911.4,   220271;   10907.55,   220858;   10903.69,   221184; 
  10899.83,   221069;   10895.97,   220798;   10892.12,   220867;   10888.26,   221502; 
  10884.4,   222411;   10880.55,   222858;   10876.69,   222786;   10872.83,   223168; 
  10868.98,   224132;   10865.12,   225119;   10861.26,   226150;   10857.41,   226868; 
  10853.55,   226850;   10849.69,   226662;   10845.83,   226827;   10841.98,   227263; 
  10838.12,   227862;   10834.26,   228539;   10830.41,   229210;   10826.55,   229855; 
  10822.69,   230398;   10818.83,   230718;   10814.98,   230673;   10811.12,   230490; 
  10807.26,   230978;   10803.41,   232184;   10799.55,   233064;   10795.69,   233547; 
  10791.84,   234173;   10787.98,   234758;   10784.12,   235408;   10780.27,   236036; 
  10776.41,   236123;   10772.55,   236077;   10768.69,   236492;   10764.84,   237320; 
  10760.98,   238189;   10757.12,   238810;   10753.27,   239290;   10749.41,   239882; 
  10745.55,   240811;   10741.7,   241900;   10737.84,   242627;   10733.98,   243001; 
  10730.13,   243451;   10726.27,   244093;   10722.41,   244623;   10718.55,   244881; 
  10714.7,   245304;   10710.84,   246236;   10706.98,   247313;   10703.13,   247969; 
  10699.27,   248251;   10695.41,   248640;   10691.55,   248972;   10687.7,   249012; 
  10683.84,   249272;   10679.98,   249808;   10676.13,   250275;   10672.27,   250731; 
  10668.41,   251103;   10664.56,   251369;   10660.7,   251973;   10656.84,   253037; 
  10652.99,   253922;   10649.13,   254296;   10645.27,   254462;   10641.41,   254794; 
  10637.56,   255740;   10633.7,   257020;   10629.84,   257843;   10625.99,   258421; 
  10622.13,   259124;   10618.27,   259817;   10614.42,   260682;   10610.56,   261732; 
  10606.7,   262823;   10602.84,   263912;   10598.99,   264380;   10595.13,   264229; 
  10591.27,   264717;   10587.42,   266167;   10583.56,   267399;   10579.7,   268002; 
  10575.85,   268932;   10571.99,   270445;   10568.13,   271798;   10564.27,   272774; 
  10560.42,   273548;   10556.56,   274106;   10552.7,   274581;   10548.85,   275285; 
  10544.99,   276373;   10541.13,   277838;   10537.28,   279620;   10533.42,   281392; 
  10529.56,   282694;   10525.71,   283672;   10521.85,   284980;   10517.99,   286777; 
  10514.13,   288678;   10510.28,   290457;   10506.42,   292224;   10502.56,   294000; 
  10498.71,   295430;   10494.85,   296527;   10490.99,   297904;   10487.13,   299555; 
  10483.28,   300937;   10479.42,   302232;   10475.56,   303842;   10471.71,   305525; 
  10467.85,   307038;   10463.99,   308381;   10460.14,   309489;   10456.28,   310479; 
  10452.42,   311672;   10448.56,   313046;   10444.71,   314162;   10440.85,   315030; 
  10436.99,   316188;   10433.14,   317834;   10429.28,   319581;   10425.42,   320748; 
  10421.57,   321249;   10417.71,   321817;   10413.85,   322836;   10410,   323996; 
  10406.14,   324660;   10402.28,   324527;   10398.42,   324412;   10394.57,   325178; 
  10390.71,   326360;   10386.85,   327247;   10383,   328056;   10379.14,   328897; 
  10375.28,   329206;   10371.43,   328959;   10367.57,   328812;   10363.71,   329141; 
  10359.85,   329789;   10356,   330477;   10352.14,   331065;   10348.28,   331404; 
  10344.43,   331388;   10340.57,   331005;   10336.71,   330506;   10332.86,   330645; 
  10329,   331653;   10325.14,   332643;   10321.28,   332950;   10317.43,   332823; 
  10313.57,   332615;   10309.71,   332345;   10305.86,   332246;   10302,   332750; 
  10298.14,   333448;   10294.29,   333504;   10290.43,   333072;   10286.57,   332932; 
  10282.71,   333384;   10278.86,   333807;   10275,   333688;   10271.14,   333659; 
  10267.29,   334022;   10263.43,   334300;   10259.57,   334336;   10255.72,   333997; 
  10251.86,   333380;   10248,   333148;   10244.14,   333551;   10240.29,   334092; 
  10236.43,   334294;   10232.57,   334199;   10228.72,   334085;   10224.86,   334153; 
  10221,   334322;   10217.15,   334297;   10213.29,   334043;   10209.43,   333784; 
  10205.58,   333563;   10201.72,   333280;   10197.86,   332969;   10194,   332752; 
  10190.15,   332629;   10186.29,   332584;   10182.43,   332643;   10178.58,   332554; 
  10174.72,   332167;   10170.86,   331777;   10167,   331513;   10163.15,   331417; 
  10159.29,   331476;   10155.43,   331371;   10151.58,   331071;   10147.72,   330819; 
  10143.86,   330716;   10140.01,   330842;   10136.15,   330974;   10132.29,   330519; 
  10128.44,   329505;   10124.58,   328601;   10120.72,   328159;   10116.86,   328195; 
  10113.01,   328363;   10109.15,   328130;   10105.29,   327619;   10101.44,   327363; 
  10097.58,   327235;   10093.72,   326686;   10089.87,   325908;   10086.01,   325494; 
  10082.15,   325473;   10078.29,   325429;   10074.44,   325057;   10070.58,   324602; 
  10066.72,   324260;   10062.87,   323689;   10059.01,   322919;   10055.15,   322504; 
  10051.3,   322491;   10047.44,   322259;   10043.58,   321541;   10039.72,   320762; 
  10035.87,   320223;   10032.01,   319868;   10028.15,   319604;   10024.3,   319222; 
  10020.44,   318648;   10016.58,   318222;   10012.73,   318034;   10008.87,   317731; 
  10005.01,   317184;   10001.16,   316593;   9997.298,   316206;   9993.441,   315953; 
  9989.584,   315438;   9985.727,   314630;   9981.87,   313935;   9978.014,   313475; 
  9974.156,   313104;   9970.299,   312831;   9966.442,   312540;   9962.585,   312059; 
  9958.729,   311586;   9954.871,   311201;   9951.015,   310663;   9947.157,   309969; 
  9943.301,   309443;   9939.443,   309178;   9935.586,   308790;   9931.729,   308230; 
  9927.872,   308028;   9924.016,   308047;   9920.158,   307500;   9916.302,   306342; 
  9912.444,   305211;   9908.588,   304533;   9904.73,   304200;   9900.873,   303880; 
  9897.017,   303530;   9893.159,   303149;   9889.303,   302699;   9885.445,   302286; 
  9881.589,   301756;   9877.731,   301108;   9873.875,   300695;   9870.018,   300351; 
  9866.16,   299969;   9862.304,   299901;   9858.447,   299745;   9854.59,   298899; 
  9850.732,   297701;   9846.876,   296667;   9843.019,   296044;   9839.162,   295796; 
  9835.305,   295368;   9831.447,   294531;   9827.591,   293848;   9823.734,   293485; 
  9819.877,   292880;   9816.02,   291988;   9812.163,   291293;   9808.306,   290845; 
  9804.449,   290431;   9800.592,   290030;   9796.734,   289621;   9792.878,   289111; 
  9789.021,   288415;   9785.164,   287580;   9781.307,   286970;   9777.45,   286716; 
  9773.593,   286404;   9769.736,   285827;   9765.879,   285104;   9762.022,   284407; 
  9758.165,   283760;   9754.309,   282890;   9750.451,   282001;   9746.594,   281617; 
  9742.737,   281391;   9738.88,   280890;   9735.023,   280455;   9731.166,   280064; 
  9727.31,   279340;   9723.452,   278546;   9719.596,   277983;   9715.738,   277562; 
  9711.881,   277128;   9708.024,   276561;   9704.168,   276014;   9700.311,   275661; 
  9696.453,   275321;   9692.597,   274796;   9688.739,   274178;   9684.883,   273661; 
  9681.025,   273286;   9677.168,   272930;   9673.312,   272392;   9669.455,   271611; 
  9665.598,   270850;   9661.74,   270424;   9657.884,   270162;   9654.026,   269669; 
  9650.17,   269021;   9646.313,   268476;   9642.455,   268072;   9638.599,   267772; 
  9634.742,   267406;   9630.885,   266837;   9627.027,   266253;   9623.171,   265797; 
  9619.313,   265296;   9615.457,   264777;   9611.6,   264479;   9607.743,   264230; 
  9603.886,   263703;   9600.029,   263008;   9596.172,   262502;   9592.314,   262248; 
  9588.458,   262061;   9584.601,   261851;   9580.744,   261517;   9576.887,   260947; 
  9573.03,   260343;   9569.173,   259975;   9565.316,   259684;   9561.459,   259228; 
  9557.602,   258636;   9553.745,   258066;   9549.889,   257650;   9546.031,   257169; 
  9542.174,   256566;   9538.317,   256218;   9534.46,   255999;   9530.604,   255630; 
  9526.746,   255259;   9522.889,   254903;   9519.032,   254522;   9515.176,   254228; 
  9511.318,   254050;   9507.461,   253876;   9503.604,   253517;   9499.747,   252971; 
  9495.891,   252440;   9492.033,   252015;   9488.177,   251758;   9484.319,   251657; 
  9480.463,   251491;   9476.605,   251286;   9472.748,   251164;   9468.892,   250872; 
  9465.034,   250309;   9461.178,   249827;   9457.32,   249582;   9453.464,   249358; 
  9449.606,   249089;   9445.75,   248914;   9441.893,   248831;   9438.035,   248668; 
  9434.179,   248341;   9430.322,   248020;   9426.465,   247873;   9422.607,   247746; 
  9418.751,   247412;   9414.894,   247048;   9411.037,   246956;   9407.18,   247018; 
  9403.322,   246992;   9399.466,   246840;   9395.609,   246636;   9391.752,   246573; 
  9387.895,   246685;   9384.038,   246659;   9380.181,   246386;   9376.324,   246097; 
  9372.467,   245893;   9368.609,   245792;   9364.753,   245835;   9360.896,   245872; 
  9357.039,   245745;   9353.182,   245584;   9349.325,   245513;   9345.468,   245449; 
  9341.611,   245423;   9337.754,   245493;   9333.897,   245547;   9330.04,   245527; 
  9326.184,   245534;   9322.326,   245716;   9318.469,   246066;   9314.612,   246260; 
  9310.755,   246099;   9306.898,   245901;   9303.041,   245921;   9299.185,   245977; 
  9295.327,   246044;   9291.471,   246228;   9287.613,   246392;   9283.756,   246475; 
  9279.899,   246553;   9276.043,   246605;   9272.186,   246611;   9268.328,   246677; 
  9264.472,   246925;   9260.614,   247356;   9256.758,   247794;   9252.9,   247955; 
  9249.043,   247911;   9245.187,   248074;   9241.33,   248453;   9237.473,   248747; 
  9233.615,   248949;   9229.759,   249144;   9225.901,   249187;   9222.045,   249207; 
  9218.188,   249624;   9214.33,   250259;   9210.474,   250565;   9206.617,   250611; 
  9202.76,   250901;   9198.902,   251434;   9195.046,   251788;   9191.188,   252044; 
  9187.332,   252424;   9183.475,   252673;   9179.618,   252719;   9175.761,   252870; 
  9171.904,   253288;   9168.047,   253801;   9164.189,   254217;   9160.333,   254605; 
  9156.476,   254994;   9152.619,   255327;   9148.762,   255688;   9144.905,   256079; 
  9141.048,   256450;   9137.191,   256916;   9133.334,   257484;   9129.477,   257995; 
  9125.62,   258373;   9121.764,   258659;   9117.906,   259027;   9114.049,   259596; 
  9110.192,   260189;   9106.335,   260664;   9102.479,   261091;   9098.621,   261588; 
  9094.764,   262184;   9090.907,   262733;   9087.051,   263239;   9083.193,   263826; 
  9079.336,   264333;   9075.479,   264670;   9071.622,   265087;   9067.766,   265707; 
  9063.908,   266337;   9060.051,   266873;   9056.194,   267455;   9052.338,   268155; 
  9048.48,   268835;   9044.623,   269339;   9040.767,   269707;   9036.909,   270076; 
  9033.053,   270548;   9029.195,   271259;   9025.339,   272131;   9021.481,   272797; 
  9017.625,   273172;   9013.768,   273593;   9009.91,   274220;   9006.054,   274875; 
  9002.196,   275429;   8998.34,   275903;   8994.482,   276375;   8990.626,   276932; 
  8986.769,   277662;   8982.912,   278552;   8979.055,   279362;   8975.197,   279887; 
  8971.341,   280268;   8967.484,   280800;   8963.627,   281504;   8959.77,   282207; 
  8955.913,   282855;   8952.056,   283453;   8948.199,   284069;   8944.342,   284757; 
  8940.484,   285437;   8936.628,   286119;   8932.771,   286924;   8928.914,   287853; 
  8925.057,   288795;   8921.2,   289701;   8917.343,   290568;   8913.486,   291547; 
  8909.629,   292846;   8905.771,   294196;   8901.915,   295210;   8898.059,   296070; 
  8894.201,   297102;   8890.344,   298262;   8886.487,   299492;   8882.63,   300945; 
  8878.773,   302644;   8874.916,   304334;   8871.06,   305824;   8867.202,   307378; 
  8863.346,   309310;   8859.488,   311441;   8855.631,   313480;   8851.774,   315440; 
  8847.917,   317515;   8844.061,   319816;   8840.203,   322331;   8836.347,   324907; 
  8832.489,   327387;   8828.633,   329944;   8824.775,   332829;   8820.918,   335968; 
  8817.062,   339112;   8813.205,   342172;   8809.348,   345234;   8805.49,   348428; 
  8801.634,   351936;   8797.776,   355739;   8793.92,   359572;   8790.063,   363295; 
  8786.205,   366899;   8782.349,   370473;   8778.492,   374236;   8774.635,   378184; 
  8770.777,   382028;   8766.921,   385808;   8763.063,   389763;   8759.207,   393752; 
  8755.35,   397603;   8751.492,   401386;   8747.636,   405088;   8743.779,   408675; 
  8739.922,   412302;   8736.064,   416022;   8732.208,   419695;   8728.351,   423240; 
  8724.494,   426638;   8720.637,   429960;   8716.78,   433368;   8712.923,   436876; 
  8709.066,   440261;   8705.209,   443387;   8701.352,   446269;   8697.495,   448849; 
  8693.638,   451233;   8689.781,   453731;   8685.924,   456341;   8682.067,   458768; 
  8678.21,   460923;   8674.354,   462938;   8670.496,   464844;   8666.639,   466528; 
  8662.782,   468094;   8658.926,   469764;   8655.068,   471344;   8651.211,   472703; 
  8647.354,   474104;   8643.497,   475553;   8639.641,   476944;   8635.783,   478387; 
  8631.926,   479825;   8628.069,   481014;   8624.213,   481962;   8620.355,   482907; 
  8616.498,   483984;   8612.642,   485171;   8608.784,   486272;   8604.928,   487085; 
  8601.07,   487802;   8597.213,   488732;   8593.356,   489727;   8589.5,   490563; 
  8585.643,   491274;   8581.785,   491781;   8577.929,   492124;   8574.071,   492568; 
  8570.215,   493113;   8566.357,   493594;   8562.501,   493971;   8558.644,   494242; 
  8554.787,   494389;   8550.93,   494481;   8547.072,   494614;   8543.216,   494748; 
  8539.359,   494881;   8535.502,   495140;   8531.645,   495429;   8527.788,   495553; 
  8523.931,   495638;   8520.074,   495880;   8516.217,   496281;   8512.359,   496712; 
  8508.503,   497085;   8504.646,   497530;   8500.789,   498037;   8496.932,   498433; 
  8493.075,   498707;   8489.218,   498884;   8485.361,   499166;   8481.504,   499781; 
  8477.646,   500485;   8473.79,   501073;   8469.934,   501718;   8466.076,   502368; 
  8462.219,   502859;   8458.362,   503426;   8454.505,   504260;   8450.648,   505174; 
  8446.791,   506008;   8442.935,   506859;   8439.077,   507779;   8435.221,   508610; 
  8431.363,   509220;   8427.506,   509728;   8423.649,   510378;   8419.792,   511213; 
  8415.936,   512153;   8412.078,   513116;   8408.222,   513918;   8404.364,   514451; 
  8400.508,   514821;   8396.65,   515221;   8392.793,   515710;   8388.937,   516123; 
  8385.08,   516445;   8381.223,   516877;   8377.365,   517437;   8373.509,   517977; 
  8369.651,   518470;   8365.795,   518929;   8361.938,   519357;   8358.08,   519867; 
  8354.224,   520370;   8350.367,   520653;   8346.51,   520860;   8342.652,   521166; 
  8338.796,   521493;   8334.938,   521921;   8331.082,   522550;   8327.225,   523076; 
  8323.367,   523265;   8319.511,   523364;   8315.654,   523596;   8311.797,   523917; 
  8307.939,   524291;   8304.083,   524693;   8300.226,   525033;   8296.369,   525284; 
  8292.512,   525551;   8288.655,   525895;   8284.798,   526210;   8280.941,   526390; 
  8277.084,   526497;   8273.227,   526670;   8269.37,   526796;   8265.513,   526703; 
  8261.656,   526509;   8257.799,   526303;   8253.942,   526050;   8250.085,   525744; 
  8246.229,   525329;   8242.371,   524788;   8238.514,   524059;   8234.657,   523103; 
  8230.801,   522165;   8226.943,   521420;   8223.086,   520630;   8219.229,   519565; 
  8215.372,   518341;   8211.516,   517086;   8207.658,   515808;   8203.801,   514523; 
  8199.944,   513206;   8196.088,   511880;   8192.23,   510571;   8188.373,   509149; 
  8184.517,   507496;   8180.659,   505823;   8176.803,   504424;   8172.945,   503106; 
  8169.088,   501616;   8165.231,   500123;   8161.375,   498825;   8157.518,   497632; 
  8153.661,   496383;   8149.804,   495093;   8145.946,   493832;   8142.09,   492650; 
  8138.232,   491572;   8134.376,   490489;   8130.519,   489317;   8126.662,   488210; 
  8122.805,   487326;   8118.948,   486454;   8115.091,   485384;   8111.233,   484305; 
  8107.377,   483341;   8103.52,   482408;   8099.663,   481539;   8095.806,   480844; 
  8091.949,   480300;   8088.092,   479680;   8084.235,   478830;   8080.378,   477954; 
  8076.521,   477220;   8072.664,   476458;   8068.807,   475661;   8064.95,   475050; 
  8061.093,   474562;   8057.236,   473993;   8053.379,   473347;   8049.522,   472747; 
  8045.665,   472233;   8041.808,   471636;   8037.951,   470911;   8034.094,   470352; 
  8030.237,   470023;   8026.38,   469578;   8022.523,   468929;   8018.666,   468361; 
  8014.809,   467940;   8010.952,   467495;   8007.095,   467030;   8003.238,   466625; 
  7999.381,   466257;   7995.524,   465901;   7991.667,   465445;   7987.811,   464809; 
  7983.953,   464215;   7980.097,   463838;   7976.239,   463579;   7972.382,   463346; 
  7968.525,   463097;   7964.668,   462763;   7960.812,   462316;   7956.954,   461783; 
  7953.098,   461311;   7949.24,   461132;   7945.384,   461180;   7941.526,   461083; 
  7937.669,   460783;   7933.813,   460502;   7929.956,   460267;   7926.099,   460033; 
  7922.242,   459817;   7918.385,   459648;   7914.527,   459641;   7910.671,   459755; 
  7906.813,   459691;   7902.957,   459424;   7899.1,   459251;   7895.243,   459278; 
  7891.386,   459396;   7887.529,   459451;   7883.672,   459339;   7879.815,   459255; 
  7875.958,   459443;   7872.101,   459731;   7868.244,   459879;   7864.387,   459883; 
  7860.53,   459779;   7856.673,   459753;   7852.816,   459989;   7848.959,   460369; 
  7845.102,   460715;   7841.245,   461008;   7837.388,   461278;   7833.531,   461548; 
  7829.674,   461883;   7825.817,   462257;   7821.96,   462611;   7818.103,   463021; 
  7814.246,   463441;   7810.389,   463781;   7806.532,   464158;   7802.675,   464655; 
  7798.818,   465209;   7794.961,   465776;   7791.104,   466358;   7787.247,   466993; 
  7783.39,   467671;   7779.533,   468326;   7775.676,   468960;   7771.819,   469631; 
  7767.962,   470366;   7764.105,   471180;   7760.249,   472012;   7756.392,   472727; 
  7752.534,   473371;   7748.677,   474154;   7744.82,   475098;   7740.963,   476093; 
  7737.106,   477066;   7733.25,   477947;   7729.393,   478813;   7725.536,   479814; 
  7721.679,   480928;   7717.822,   482033;   7713.964,   483136;   7710.107,   484358; 
  7706.25,   485611;   7702.394,   486719;   7698.537,   487811;   7694.68,   489051; 
  7690.823,   490391;   7686.966,   491774;   7683.109,   493179;   7679.252,   494582; 
  7675.395,   495991;   7671.538,   497428;   7667.681,   498900;   7663.824,   500395; 
  7659.967,   501839;   7656.11,   503277;   7652.253,   504874;   7648.396,   506583; 
  7644.539,   508288;   7640.682,   510063;   7636.825,   511978;   7632.968,   513898; 
  7629.111,   515730;   7625.254,   517529;   7621.397,   519307;   7617.54,   521136; 
  7613.683,   523155;   7609.826,   525335;   7605.969,   527437;   7602.112,   529400; 
  7598.255,   531401;   7594.398,   533458;   7590.541,   535567;   7586.684,   537828; 
  7582.827,   540172;   7578.97,   542482;   7575.113,   544846;   7571.256,   547307; 
  7567.399,   549686;   7563.542,   551925;   7559.685,   554222;   7555.828,   556709; 
  7551.971,   559225;   7548.114,   561711;   7544.257,   564392;   7540.4,   567132; 
  7536.543,   569556;   7532.687,   571817;   7528.83,   574248;   7524.973,   576787; 
  7521.115,   579390;   7517.258,   582129;   7513.401,   584858;   7509.544,   587468; 
  7505.688,   590051;   7501.831,   592615;   7497.974,   595078;   7494.117,   597546; 
  7490.26,   600148;   7486.403,   602789;   7482.545,   605286;   7478.688,   607670; 
  7474.832,   610190;   7470.975,   612710;   7467.118,   615014;   7463.261,   617328; 
  7459.404,   619761;   7455.547,   622218;   7451.69,   624696;   7447.833,   627122; 
  7443.976,   629374;   7440.119,   631581;   7436.262,   633880;   7432.405,   636125; 
  7428.548,   638192;   7424.691,   640136;   7420.834,   642055;   7416.977,   644043; 
  7413.12,   646157;   7409.263,   648241;   7405.406,   650237;   7401.549,   652286; 
  7397.692,   654267;   7393.835,   656072;   7389.978,   657897;   7386.121,   659847; 
  7382.264,   661751;   7378.407,   663539;   7374.55,   665367;   7370.693,   667276; 
  7366.836,   669234;   7362.979,   671169;   7359.122,   673084;   7355.265,   675037; 
  7351.408,   676925;   7347.551,   678646;   7343.694,   680439;   7339.837,   682782; 
  7335.98,   685309;   7332.124,   687389;   7328.266,   689369;   7324.409,   691895; 
  7320.552,   694757;   7316.695,   697418;   7312.838,   699929;   7308.981,   702694; 
  7305.125,   705800;   7301.268,   708823;   7297.411,   711691;   7293.554,   714946; 
  7289.696,   718732;   7285.839,   722613;   7281.982,   726439;   7278.125,   730486; 
  7274.269,   734752;   7270.412,   738901;   7266.555,   743038;   7262.698,   747622; 
  7258.841,   752476;   7254.984,   757315;   7251.126,   762290;   7247.27,   767204; 
  7243.413,   772279;   7239.556,   777634;   7235.699,   782909;   7231.842,   788721; 
  7227.985,   795094;   7224.128,   801405;   7220.271,   807672;   7216.414,   813913; 
  7212.557,   820088;   7208.7,   826071;   7204.843,   832027;   7200.986,   838141; 
  7197.129,   844317;   7193.272,   850534;   7189.415,   856501;   7185.558,   862000; 
  7181.701,   867474;   7177.844,   872982;   7173.987,   877925;   7170.13,   882537; 
  7166.273,   887378;   7162.416,   892312;   7158.559,   896948;   7154.702,   901206; 
  7150.845,   905282;   7146.988,   909207;   7143.131,   912935;   7139.274,   916558; 
  7135.417,   920036;   7131.56,   923243;   7127.703,   926313;   7123.846,   929161; 
  7119.989,   931654;   7116.132,   934354;   7112.275,   937273;   7108.418,   939878; 
  7104.562,   942145;   7100.705,   944212;   7096.847,   946241;   7092.99,   948171; 
  7089.133,   949895;   7085.276,   951588;   7081.419,   953299;   7077.563,   954920; 
  7073.706,   956471;   7069.849,   957995;   7065.992,   959484;   7062.135,   960770; 
  7058.277,   961540;   7054.42,   962027;   7050.563,   962649;   7046.707,   963392; 
  7042.85,   964247;   7038.993,   965177;   7035.136,   966061;   7031.279,   966953; 
  7027.422,   967808;   7023.565,   968329;   7019.708,   968699;   7015.851,   969368; 
  7011.994,   970252;   7008.137,   971140;   7004.28,   971908;   7000.423,   972517; 
  6996.566,   972957;   6992.709,   973192;   6988.852,   973474;   6984.995,   974078; 
  6981.138,   974726;   6977.281,   974906;   6973.424,   974936;   6969.567,   975430; 
  6965.71,   975994;   6961.853,   976140;   6957.996,   976252;   6954.139,   976603; 
  6950.282,   976914;   6946.425,   977135;   6942.568,   977380;   6938.711,   977572; 
  6934.854,   977707;   6930.997,   977816;   6927.14,   977868;   6923.283,   977897; 
  6919.426,   978055;   6915.569,   978319;   6911.712,   978368;   6907.855,   978165; 
  6903.999,   978023;   6900.141,   978053;   6896.284,   978243;   6892.427,   978549; 
  6888.57,   978693;   6884.713,   978590;   6880.856,   978496;   6877,   978532; 
  6873.143,   978585;   6869.286,   978593;   6865.429,   978678;   6861.571,   978858; 
  6857.714,   978978;   6853.857,   978969;   6850,   978851;   6846.144,   978615; 
  6842.287,   978231;   6838.43,   977812;   6834.573,   977607;   6830.716,   977648; 
  6826.859,   977633;   6823.001,   977354;   6819.145,   976981;   6815.288,   976772; 
  6811.431,   976706;   6807.574,   976554;   6803.717,   976295;   6799.86,   975974; 
  6796.003,   975345;   6792.146,   974419;   6788.289,   973687;   6784.432,   973269; 
  6780.575,   972816;   6776.718,   972188;   6772.861,   971423;   6769.004,   970612; 
  6765.147,   969930;   6761.29,   969385;   6757.433,   968886;   6753.576,   968336; 
  6749.719,   967627;   6745.862,   966914;   6742.005,   966385;   6738.148,   965812; 
  6734.291,   964989;   6730.434,   964112;   6726.577,   963328;   6722.72,   962470; 
  6718.863,   961423;   6715.006,   960428;   6711.149,   959680;   6707.292,   958934; 
  6703.435,   958008;   6699.578,   957108;   6695.721,   956333;   6691.864,   955491; 
  6688.007,   954577;   6684.15,   953724;   6680.293,   952772;   6676.437,   951580; 
  6672.58,   950350;   6668.722,   949284;   6664.865,   948321;   6661.008,   947389; 
  6657.151,   946478;   6653.294,   945495;   6649.438,   944412;   6645.581,   943183; 
  6641.724,   941871;   6637.867,   940844;   6634.01,   940025;   6630.152,   938889; 
  6626.295,   937605;   6622.438,   936641;   6618.582,   935746;   6614.725,   934517; 
  6610.868,   933076;   6607.011,   931806;   6603.154,   930723;   6599.297,   929521; 
  6595.44,   928235;   6591.583,   926986;   6587.726,   925773;   6583.869,   924692; 
  6580.012,   923581;   6576.155,   922281;   6572.298,   920965;   6568.441,   919722; 
  6564.584,   918451;   6560.727,   917106;   6556.87,   915766;   6553.013,   914511; 
  6549.156,   913360;   6545.299,   912216;   6541.442,   910951;   6537.585,   909560; 
  6533.728,   908129;   6529.871,   906738;   6526.014,   905352;   6522.157,   903948; 
  6518.3,   902585;   6514.443,   901250;   6510.586,   900050;   6506.729,   899108; 
  6502.872,   898125;   6499.015,   896725;   6495.158,   895085;   6491.301,   893607; 
  6487.444,   892310;   6483.587,   891074;   6479.73,   889947;   6475.873,   888828; 
  6472.016,   887545;   6468.159,   886180;   6464.302,   884809;   6460.445,   883368; 
  6456.588,   881835;   6452.731,   880319;   6448.875,   879036;   6445.018,   877959; 
  6441.161,   876754;   6437.303,   875374;   6433.446,   874086;   6429.589,   872866; 
  6425.732,   871573;   6421.875,   870349;   6418.019,   869223;   6414.162,   867987; 
  6410.305,   866621;   6406.448,   865256;   6402.591,   863935;   6398.733,   862708; 
  6394.876,   861571;   6391.02,   860405;   6387.163,   859152;   6383.306,   857836; 
  6379.449,   856531;   6375.592,   855299;   6371.735,   854117;   6367.878,   852939; 
  6364.021,   851770;   6360.164,   850669;   6356.307,   849577;   6352.45,   848354; 
  6348.593,   847049;   6344.736,   845775;   6340.879,   844513;   6337.022,   843324; 
  6333.165,   842310;   6329.308,   841296;   6325.451,   840102;   6321.594,   838798; 
  6317.737,   837497;   6313.88,   836283;   6310.023,   835219;   6306.166,   834232; 
  6302.309,   833188;   6298.452,   832145;   6294.595,   831244;   6290.738,   830410; 
  6286.881,   829473;   6283.024,   828460;   6279.167,   827448;   6275.31,   826412; 
  6271.453,   825404;   6267.596,   824388;   6263.739,   823287;   6259.882,   822214; 
  6256.025,   821208;   6252.168,   820295;   6248.312,   819520;   6244.454,   818637; 
  6240.597,   817498;   6236.74,   816419;   6232.883,   815649;   6229.026,   815003; 
  6225.169,   814202;   6221.313,   813197;   6217.456,   812157;   6213.599,   811194; 
  6209.742,   810325;   6205.884,   809607;   6202.027,   808910;   6198.17,   808049; 
  6194.313,   807138;   6190.457,   806309;   6186.6,   805500;   6182.743,   804674; 
  6178.886,   803851;   6175.029,   803049;   6171.172,   802363;   6167.314,   801813; 
  6163.458,   801195;   6159.601,   800358;   6155.744,   799400;   6151.887,   798554; 
  6148.03,   797990;   6144.173,   797614;   6140.316,   797220;   6136.459,   796771; 
  6132.602,   796216;   6128.745,   795496;   6124.888,   794801;   6121.031,   794288; 
  6117.174,   793817;   6113.317,   793272;   6109.46,   792870;   6105.603,   792662; 
  6101.746,   792233;   6097.889,   791574;   6094.032,   791128;   6090.175,   790832; 
  6086.318,   790405;   6082.461,   789913;   6078.604,   789468;   6074.747,   789131; 
  6070.89,   788883;   6067.033,   788610;   6063.176,   788298;   6059.319,   787975; 
  6055.462,   787687;   6051.605,   787565;   6047.748,   787584;   6043.891,   787511; 
  6040.034,   787392;   6036.177,   787456;   6032.32,   787582;   6028.463,   787673; 
  6024.606,   787892;   6020.75,   788234;   6016.893,   788603;   6013.036,   788917; 
  6009.178,   789123;   6005.321,   789358;   6001.464,   789734;   5997.607,   790157; 
  5993.75,   790546;   5989.894,   790888;   5986.037,   791180;   5982.18,   791483; 
  5978.323,   791888;   5974.466,   792434;   5970.608,   793159;   5966.751,   794045; 
  5962.895,   794952;   5959.038,   795823;   5955.181,   796733;   5951.324,   797704; 
  5947.467,   798800;   5943.61,   800142;   5939.753,   801677;   5935.896,   803312; 
  5932.039,   805091;   5928.182,   807026;   5924.325,   809174;   5920.468,   811757; 
  5916.611,   814691;   5912.754,   817545;   5908.897,   820053;   5905.04,   822166; 
  5901.183,   823923;   5897.326,   825655;   5893.469,   827788;   5889.612,   830393; 
  5885.755,   833457;   5881.898,   837170;   5878.041,   841388;   5874.184,   845416; 
  5870.327,   848881;   5866.47,   851975;   5862.613,   854749;   5858.756,   857169; 
  5854.899,   859467;   5851.042,   861774;   5847.185,   863932;   5843.328,   865825; 
  5839.471,   867518;   5835.614,   869107;   5831.757,   870710;   5827.9,   872339; 
  5824.043,   873969;   5820.187,   875719;   5816.329,   877508;   5812.472,   879089; 
  5808.615,   880465;   5804.758,   881802;   5800.901,   883173;   5797.044,   884436; 
  5793.188,   885410;   5789.331,   885918;   5785.474,   885722;   5781.617,   884798; 
  5777.759,   883315;   5773.902,   881408;   5770.045,   879280;   5766.188,   877239; 
  5762.332,   875522;   5758.475,   874177;   5754.618,   873114;   5750.761,   872234; 
  5746.904,   871613;   5743.047,   871481;   5739.189,   871944;   5735.333,   872858; 
  5731.476,   874006;   5727.619,   875422;   5723.762,   877169;   5719.905,   879004; 
  5716.048,   880857;   5712.191,   882906;   5708.334,   885004;   5704.477,   886953; 
  5700.62,   888928;   5696.763,   891002;   5692.906,   892960;   5689.049,   894698; 
  5685.192,   896233;   5681.335,   897667;   5677.478,   899113;   5673.621,   900290; 
  5669.764,   900918;   5665.907,   901241;   5662.05,   901463;   5658.193,   901465; 
  5654.336,   901267;   5650.479,   901110;   5646.622,   901159;   5642.765,   901349; 
  5638.908,   901530;   5635.051,   901648;   5631.194,   901680;   5627.337,   901656; 
  5623.48,   901808;   5619.623,   902201;   5615.766,   902569;   5611.909,   902820; 
  5608.052,   903010;   5604.195,   903072;   5600.338,   903128;   5596.481,   903494; 
  5592.625,   904191;   5588.768,   904982;   5584.91,   905622;   5581.053,   905840; 
  5577.196,   905616;   5573.339,   905337;   5569.482,   905426;   5565.625,   905944; 
  5561.769,   906518;   5557.912,   906680;   5554.055,   906406;   5550.198,   906020; 
  5546.34,   905698;   5542.483,   905594;   5538.626,   905827;   5534.77,   906251; 
  5530.913,   906561;   5527.056,   906521;   5523.199,   906258;   5519.342,   906052; 
  5515.485,   905970;   5511.628,   905999;   5507.771,   906165;   5503.914,   906385; 
  5500.057,   906420;   5496.2,   906139;   5492.343,   905842;   5488.486,   906110; 
  5484.629,   906726;   5480.772,   906951;   5476.915,   906828;   5473.058,   906882; 
  5469.201,   907188;   5465.344,   907677;   5461.487,   908452;   5457.63,   909247; 
  5453.773,   909774;   5449.916,   910249;   5446.059,   910914;   5442.202,   911734; 
  5438.345,   912581;   5434.488,   913540;   5430.631,   914782;   5426.774,   916485; 
  5422.917,   918475;   5419.06,   920074;   5415.203,   921298;   5411.346,   923199; 
  5407.489,   926136;   5403.632,   929136;   5399.775,   931719;   5395.918,   934395; 
  5392.061,   937525;   5388.204,   940975;   5384.347,   944730;   5380.49,   948693; 
  5376.633,   953169;   5372.776,   958231;   5368.919,   963058;   5365.063,   967802; 
  5361.206,   972857;   5357.349,   978046;   5353.491,   983761;   5349.634,   989923; 
  5345.777,   995933;   5341.92,  1001948;   5338.063,  1008291;   5334.207,  1014720; 
  5330.35,  1021005;   5326.493,  1027375;   5322.636,  1033501;   5318.779,  1039191; 
  5314.921,  1044769;   5311.064,  1050009;   5307.208,  1054931;   5303.351,  1059752; 
  5299.494,  1064126;   5295.637,  1067873;   5291.78,  1071372;   5287.923,  1075054; 
  5284.066,  1078728;   5280.209,  1082037;   5276.352,  1084890;   5272.495,  1087270; 
  5268.638,  1089336;   5264.781,  1091287;   5260.924,  1093030;   5257.067,  1094397; 
  5253.21,  1095643;   5249.353,  1097109;   5245.496,  1098770;   5241.639,  1100259; 
  5237.782,  1101319;   5233.925,  1101990;   5230.068,  1102398;   5226.211,  1103049; 
  5222.354,  1104314;   5218.497,  1105662;   5214.64,  1106449;   5210.783,  1106622; 
  5206.926,  1106758;   5203.069,  1107196;   5199.212,  1107707;   5195.355,  1108266; 
  5191.498,  1108671;   5187.641,  1108610;   5183.784,  1108262;   5179.927,  1108081; 
  5176.07,  1108316;   5172.213,  1108853;   5168.356,  1109322;   5164.5,  1109563; 
  5160.642,  1109595;   5156.785,  1109263;   5152.928,  1108859;   5149.071,  1108842; 
  5145.214,  1108888;   5141.357,  1108519;   5137.5,  1108025;   5133.644,  1107945; 
  5129.787,  1108026;   5125.93,  1107864;   5122.072,  1107645;   5118.215,  1107541; 
  5114.358,  1107486;   5110.501,  1107326;   5106.645,  1106947;   5102.788,  1106470; 
  5098.931,  1106083;   5095.074,  1105899;   5091.217,  1105962;   5087.36,  1106082; 
  5083.503,  1106022;   5079.646,  1105714;   5075.789,  1105166;   5071.932,  1104757; 
  5068.075,  1104747;   5064.218,  1104599;   5060.361,  1104066;   5056.504,  1103710; 
  5052.647,  1103723;   5048.79,  1103685;   5044.933,  1103547;   5041.076,  1103473; 
  5037.219,  1103265;   5033.362,  1102910;   5029.505,  1102574;   5025.648,  1102335; 
  5021.791,  1102412;   5017.934,  1102679;   5014.077,  1102516;   5010.22,  1101764; 
  5006.363,  1100988;   5002.506,  1100607;   4998.649,  1100490;   4994.792,  1100527; 
  4990.935,  1100725;   4987.078,  1100856;   4983.221,  1100748;   4979.364,  1100475; 
  4975.507,  1100084;   4971.65,  1099634;   4967.793,  1099376;   4963.936,  1099511; 
  4960.079,  1099929;   4956.222,  1100316;   4952.365,  1100437;   4948.508,  1100290; 
  4944.651,  1099902;   4940.794,  1099525;   4936.938,  1099723;   4933.081,  1100385; 
  4929.224,  1100858;   4925.366,  1100948;   4921.509,  1100777;   4917.652,  1100553; 
  4913.795,  1100527;   4909.938,  1100723;   4906.082,  1100948;   4902.225,  1101087; 
  4898.368,  1101091;   4894.511,  1100731;   4890.654,  1100094;   4886.796,  1099895; 
  4882.939,  1100316;   4879.083,  1100616;   4875.226,  1100441;   4871.369,  1100153; 
  4867.512,  1099942;   4863.655,  1099712;   4859.798,  1099492;   4855.941,  1099350; 
  4852.084,  1099266;   4848.227,  1099133;   4844.37,  1098823;   4840.513,  1098429; 
  4836.656,  1098155;   4832.799,  1097834;   4828.942,  1097179;   4825.085,  1096480; 
  4821.228,  1096133;   4817.371,  1095941;   4813.514,  1095614;   4809.657,  1095057; 
  4805.8,  1094302;   4801.943,  1093773;   4798.086,  1093665;   4794.229,  1093533; 
  4790.372,  1093054;   4786.515,  1092384;   4782.658,  1091826;   4778.801,  1091360; 
  4774.944,  1090812;   4771.087,  1090264;   4767.23,  1089676;   4763.373,  1088885; 
  4759.516,  1088071;   4755.659,  1087650;   4751.802,  1087762;   4747.945,  1087894; 
  4744.088,  1087335;   4740.231,  1086167;   4736.375,  1085347;   4732.517,  1085395; 
  4728.66,  1085658;   4724.803,  1085457;   4720.946,  1084968;   4717.089,  1084580; 
  4713.232,  1084261;   4709.375,  1084005;   4705.519,  1084071;   4701.662,  1084279; 
  4697.805,  1084099;   4693.947,  1083393;   4690.09,  1082469;   4686.233,  1081757; 
  4682.376,  1081355;   4678.52,  1080952;   4674.663,  1080338;   4670.806,  1079677; 
  4666.949,  1078985;   4663.092,  1077960;   4659.235,  1076683;   4655.377,  1075369; 
  4651.521,  1073902;   4647.664,  1072397;   4643.807,  1071076;   4639.95,  1069766; 
  4636.093,  1068288;   4632.236,  1066668;   4628.379,  1064972;   4624.522,  1063340; 
  4620.665,  1061925;   4616.808,  1060664;   4612.951,  1059233;   4609.094,  1057446; 
  4605.237,  1055641;   4601.38,  1054113;   4597.523,  1052681;   4593.666,  1051353; 
  4589.809,  1050278;   4585.952,  1049214;   4582.095,  1048014;   4578.238,  1046837; 
  4574.381,  1045670;   4570.524,  1044388;   4566.667,  1043141;   4562.81,  1042262; 
  4558.953,  1041724;   4555.096,  1041112;   4551.239,  1040265;   4547.382,  1039320; 
  4543.525,  1038520;   4539.668,  1038230;   4535.811,  1038347;   4531.954,  1038348; 
  4528.097,  1038005;   4524.24,  1037422;   4520.383,  1036813;   4516.526,  1036261; 
  4512.669,  1035882;   4508.813,  1035966;   4504.956,  1036497;   4501.098,  1037150; 
  4497.241,  1037617;   4493.384,  1037878;   4489.527,  1038339;   4485.67,  1039248; 
  4481.813,  1040298;   4477.957,  1041296;   4474.1,  1042542;   4470.243,  1044149; 
  4466.386,  1045939;   4462.528,  1047782;   4458.671,  1049396;   4454.814,  1050621; 
  4450.958,  1051931;   4447.101,  1053998;   4443.244,  1056878;   4439.387,  1060190; 
  4435.53,  1063691;   4431.673,  1067157;   4427.816,  1070554;   4423.958,  1074141; 
  4420.102,  1077969;   4416.245,  1081928;   4412.388,  1085945;   4408.531,  1089832; 
  4404.674,  1093223;   4400.817,  1096002;   4396.96,  1098615;   4393.103,  1101219; 
  4389.246,  1103453;   4385.389,  1105341;   4381.532,  1107124;   4377.675,  1108866; 
  4373.818,  1110657;   4369.961,  1112436;   4366.104,  1114280;   4362.247,  1116686; 
  4358.39,  1119802;   4354.533,  1123331;   4350.676,  1127250;   4346.819,  1131683; 
  4342.962,  1136299;   4339.105,  1140515;   4335.248,  1143845;   4331.391,  1146166; 
  4327.534,  1147486;   4323.677,  1147089;   4319.82,  1145014;   4315.963,  1142702; 
  4312.106,  1140557;   4308.249,  1138517;   4304.392,  1137440;   4300.535,  1137687; 
  4296.678,  1138668;   4292.821,  1139777;   4288.964,  1140922;   4285.107,  1142447; 
  4281.25,  1144426;   4277.394,  1146484;   4273.537,  1148621;   4269.679,  1151255; 
  4265.822,  1154190;   4261.965,  1156629;   4258.108,  1158593;   4254.251,  1160239; 
  4250.395,  1160812;   4246.538,  1160570;   4242.681,  1159995;   4238.824,  1159052; 
  4234.967,  1159024;   4231.109,  1160410;   4227.252,  1162000;   4223.396,  1162620; 
  4219.539,  1161987;   4215.682,  1161507;   4211.825,  1162169;   4207.968,  1163146; 
  4204.111,  1163891;   4200.254,  1164600;   4196.397,  1164841;   4192.54,  1164430; 
  4188.683,  1164798;   4184.826,  1167109;   4180.969,  1169334;   4177.112,  1168146; 
  4173.255,  1165366;   4169.398,  1166028;   4165.541,  1170290;   4161.684,  1174166; 
  4157.827,  1175028;   4153.97,  1173617;   4150.113,  1172185;   4146.256,  1172070; 
  4142.399,  1173205;   4138.542,  1174925;   4134.685,  1176165;   4130.828,  1175111; 
  4126.971,  1173617;   4123.114,  1175423;   4119.257,  1178439;   4115.4,  1180898; 
  4111.543,  1184300;   4107.686,  1185316;   4103.829,  1182735;   4099.972,  1180265; 
  4096.115,  1175284;   4092.258,  1168816;   4088.401,  1168840;   4084.544,  1173578; 
  4080.688,  1178557;   4076.831,  1184040;   4072.973,  1187877;   4069.116,  1191589; 
  4065.259,  1198558;   4061.402,  1205092;   4057.545,  1205558;   4053.688,  1201092; 
  4049.832,  1197166;   4045.975,  1194823;   4042.118,  1194151;   4038.261,  1196162; 
  4034.403,  1198998;   4030.546,  1199894;   4026.689,  1197390;   4022.833,  1196280; 
  4018.976,  1199566;   4015.119,  1196516;   4011.262,  1185414;   4007.405,  1175581; 
  4003.548,  1170057;   3999.691,  1173816; 
##END=
##END=
