{
  "title": "Metazeunerite",
  "created": "06-17-24 20:32:03",
  "modified": "06-17-24 20:32:03",
  "description": "DESCRIPTION: Green tabular crystal, cell parameters indicate a disordered structure;LOCALITY: Majuba Hill mine, Pershing County, Nevada;STATUS: The identification of this mineral has been confirmed only by single crystal X-ray diffraction.",
  "sources": [
    {
      "citation": "Highlights in Mineralogical Crystallography 2015 1-30",
      "reftype": "journal article",
      "doi": "10.1515/9783110417104-003",
      "url": "https://doi.org/10.1515/9783110417104-003"
    },
    {
      "citation": "RRUFF project database entry",
      "url": "https://rruff.info/R050524"
    }
  ],
  "scidata": {
    "methodology": {
      "techniqueType": "cao:spectroscopy",
      "technique": "Raman Spectroscopy",
      "instrumentType": "Raman Spectrometer",
      "settings": [
        {
          "@id": "setting/1/",
          "@type": "sdo:setting",
          "quantity": "length",
          "property": "Wavelength",
          "value": {
            "@id": "setting/1/value/",
            "@type": "sdo:value",
            "number": "780",
            "unitref": "qudt:NanoM"
          }
        }
      ]
    },
    "system": {
      "material": {
        "name": "Metazeunerite",
        "materialType": "Cu^2+^(U^6+^O_2_)_2_(As^5+^O_4_)_2_&#183;8H_2_O"
      },
      "compound": {
        "formula": "Cu(UO2)2(AsO4)2 Â· 8H2O",
        "name": "metazeunerite"
      },
      "functionalgroup": [
        {
          "atoms": "U",
          "multiplicity": 2
        },
        {
          "atoms": "H2O",
          "multiplicity": 8
        },
        {
          "atoms": "AsO4",
          "multiplicity": 2
        },
        {
          "atoms": "Cu",
          "multiplicity": 1
        }
      ],
      "structuretype": {
        "structure type": "sheet"
      },
      "crystalsystem": {
        "crystal system": "tetragonal"
      },
      "coordinationchemistry": {
        "uranium coordination chemistry": "square",
        "multiplicity": 2
      }
    },
    "dataseries": [
      {
        "x-axis": {
          "parameter": {
            "quantity": "Wave Numbers",
            "property": "Wave Numbers",
            "units": "1/cm",
            "datatype": "decimal",
            "numericValueArray": [
              {
                "numberArray": [
                  81.328,
                  83.25658,
                  85.18504,
                  87.11351,
                  89.04198,
                  90.97044,
                  92.89891,
                  94.82738,
                  96.75584,
                  98.68431,
                  100.6128,
                  102.5412,
                  104.4697,
                  106.3982,
                  108.3266,
                  110.2551,
                  112.1836,
                  114.112,
                  116.0405,
                  117.969,
                  119.8974,
                  121.8259,
                  123.7544,
                  125.6828,
                  127.6113,
                  129.5398,
                  131.4682,
                  133.3967,
                  135.3252,
                  137.2536,
                  139.1821,
                  141.1106,
                  143.039,
                  144.9675,
                  146.896,
                  148.8244,
                  150.7529,
                  152.6814,
                  154.6098,
                  156.5383,
                  158.4668,
                  160.3952,
                  162.3237,
                  164.2522,
                  166.1806,
                  168.1091,
                  170.0376,
                  171.966,
                  173.8945,
                  175.823,
                  177.7514,
                  179.6799,
                  181.6084,
                  183.5368,
                  185.4653,
                  187.3938,
                  189.3223,
                  191.2507,
                  193.1792,
                  195.1077,
                  197.0361,
                  198.9646,
                  200.8931,
                  202.8215,
                  204.75,
                  206.6785,
                  208.6069,
                  210.5354,
                  212.4639,
                  214.3923,
                  216.3208,
                  218.2493,
                  220.1777,
                  222.1062,
                  224.0347,
                  225.9631,
                  227.8916,
                  229.8201,
                  231.7485,
                  233.677,
                  235.6055,
                  237.5339,
                  239.4624,
                  241.3909,
                  243.3193,
                  245.2478,
                  247.1763,
                  249.1047,
                  251.0332,
                  252.9617,
                  254.8901,
                  256.8186,
                  258.7471,
                  260.6755,
                  262.604,
                  264.5325,
                  266.4609,
                  268.3894,
                  270.3179,
                  272.2463,
                  274.1748,
                  276.1033,
                  278.0317,
                  279.9602,
                  281.8887,
                  283.8171,
                  285.7456,
                  287.6741,
                  289.6025,
                  291.531,
                  293.4595,
                  295.3879,
                  297.3164,
                  299.2449,
                  301.1733,
                  303.1018,
                  305.0303,
                  306.9587,
                  308.8872,
                  310.8157,
                  312.7441,
                  314.6726,
                  316.6011,
                  318.5295,
                  320.458,
                  322.3865,
                  324.3149,
                  326.2434,
                  328.1719,
                  330.1003,
                  332.0288,
                  333.9573,
                  335.8857,
                  337.8142,
                  339.7427,
                  341.6711,
                  343.5996,
                  345.5281,
                  347.4565,
                  349.385,
                  351.3135,
                  353.2419,
                  355.1704,
                  357.0989,
                  359.0273,
                  360.9558,
                  362.8843,
                  364.8127,
                  366.7412,
                  368.6697,
                  370.5981,
                  372.5266,
                  374.4551,
                  376.3835,
                  378.312,
                  380.2405,
                  382.1689,
                  384.0974,
                  386.0259,
                  387.9543,
                  389.8828,
                  391.8113,
                  393.7397,
                  395.6682,
                  397.5967,
                  399.5251,
                  401.4536,
                  403.3821,
                  405.3105,
                  407.239,
                  409.1675,
                  411.0959,
                  413.0244,
                  414.9529,
                  416.8813,
                  418.8098,
                  420.7383,
                  422.6667,
                  424.5952,
                  426.5237,
                  428.4521,
                  430.3806,
                  432.3091,
                  434.2375,
                  436.166,
                  438.0945,
                  440.0229,
                  441.9514,
                  443.8799,
                  445.8083,
                  447.7368,
                  449.6653,
                  451.5938,
                  453.5222,
                  455.4507,
                  457.3792,
                  459.3076,
                  461.2361,
                  463.1646,
                  465.093,
                  467.0215,
                  468.95,
                  470.8784,
                  472.8069,
                  474.7354,
                  476.6638,
                  478.5923,
                  480.5208,
                  482.4492,
                  484.3777,
                  486.3062,
                  488.2346,
                  490.1631,
                  492.0916,
                  494.02,
                  495.9485,
                  497.877,
                  499.8054,
                  501.7339,
                  503.6624,
                  505.5908,
                  507.5193,
                  509.4478,
                  511.3762,
                  513.3047,
                  515.2332,
                  517.1616,
                  519.0901,
                  521.0186,
                  522.947,
                  524.8755,
                  526.804,
                  528.7324,
                  530.6609,
                  532.5894,
                  534.5178,
                  536.4463,
                  538.3748,
                  540.3032,
                  542.2317,
                  544.1602,
                  546.0886,
                  548.0171,
                  549.9456,
                  551.874,
                  553.8025,
                  555.731,
                  557.6594,
                  559.5879,
                  561.5164,
                  563.4448,
                  565.3733,
                  567.3018,
                  569.2302,
                  571.1587,
                  573.0872,
                  575.0156,
                  576.9441,
                  578.8726,
                  580.801,
                  582.7295,
                  584.658,
                  586.5864,
                  588.5149,
                  590.4434,
                  592.3718,
                  594.3003,
                  596.2288,
                  598.1572,
                  600.0857,
                  602.0142,
                  603.9426,
                  605.8711,
                  607.7996,
                  609.728,
                  611.6565,
                  613.585,
                  615.5134,
                  617.4419,
                  619.3704,
                  621.2988,
                  623.2273,
                  625.1558,
                  627.0842,
                  629.0127,
                  630.9412,
                  632.8696,
                  634.7981,
                  636.7266,
                  638.655,
                  640.5835,
                  642.512,
                  644.4404,
                  646.3689,
                  648.2974,
                  650.2258,
                  652.1543,
                  654.0828,
                  656.0112,
                  657.9397,
                  659.8682,
                  661.7966,
                  663.7251,
                  665.6536,
                  667.582,
                  669.5105,
                  671.439,
                  673.3674,
                  675.2959,
                  677.2244,
                  679.1528,
                  681.0813,
                  683.0098,
                  684.9382,
                  686.8667,
                  688.7952,
                  690.7236,
                  692.6521,
                  694.5806,
                  696.509,
                  698.4375,
                  700.366,
                  702.2944,
                  704.2229,
                  706.1514,
                  708.0798,
                  710.0083,
                  711.9368,
                  713.8652,
                  715.7937,
                  717.7222,
                  719.6506,
                  721.5791,
                  723.5076,
                  725.436,
                  727.3645,
                  729.293,
                  731.2214,
                  733.1499,
                  735.0784,
                  737.0068,
                  738.9353,
                  740.8638,
                  742.7922,
                  744.7207,
                  746.6492,
                  748.5776,
                  750.5061,
                  752.4346,
                  754.363,
                  756.2915,
                  758.22,
                  760.1484,
                  762.0769,
                  764.0054,
                  765.9338,
                  767.8623,
                  769.7908,
                  771.7192,
                  773.6477,
                  775.5762,
                  777.5046,
                  779.4331,
                  781.3616,
                  783.29,
                  785.2185,
                  787.147,
                  789.0754,
                  791.0039,
                  792.9324,
                  794.8608,
                  796.7893,
                  798.7178,
                  800.6462,
                  802.5747,
                  804.5032,
                  806.4316,
                  808.3601,
                  810.2886,
                  812.217,
                  814.1455,
                  816.074,
                  818.0024,
                  819.9309,
                  821.8594,
                  823.7878,
                  825.7163,
                  827.6448,
                  829.5732,
                  831.5017,
                  833.4302,
                  835.3586,
                  837.2871,
                  839.2156,
                  841.144,
                  843.0725,
                  845.001,
                  846.9294,
                  848.8579,
                  850.7864,
                  852.7148,
                  854.6433,
                  856.5718,
                  858.5002,
                  860.4287,
                  862.3572,
                  864.2856,
                  866.2141,
                  868.1426,
                  870.071,
                  871.9995,
                  873.928,
                  875.8564,
                  877.7849,
                  879.7134,
                  881.6418,
                  883.5703,
                  885.4988,
                  887.4272,
                  889.3557,
                  891.2842,
                  893.2126,
                  895.1411,
                  897.0696,
                  898.998,
                  900.9265,
                  902.855,
                  904.7834,
                  906.7119,
                  908.6404,
                  910.5688,
                  912.4973,
                  914.4258,
                  916.3542,
                  918.2827,
                  920.2112,
                  922.1396,
                  924.0681,
                  925.9966,
                  927.925,
                  929.8535,
                  931.782,
                  933.7104,
                  935.6389,
                  937.5674,
                  939.4958,
                  941.4243,
                  943.3528,
                  945.2813,
                  947.2097,
                  949.1382,
                  951.0667,
                  952.9951,
                  954.9236,
                  956.8521,
                  958.7805,
                  960.709,
                  962.6375,
                  964.5659,
                  966.4944,
                  968.4229,
                  970.3513,
                  972.2798,
                  974.2083,
                  976.1367,
                  978.0652,
                  979.9937,
                  981.9221,
                  983.8506,
                  985.7791,
                  987.7075,
                  989.636,
                  991.5645,
                  993.4929,
                  995.4214,
                  997.3499,
                  999.2783,
                  1001.207,
                  1003.135,
                  1005.064,
                  1006.992,
                  1008.921,
                  1010.849,
                  1012.778,
                  1014.706,
                  1016.635,
                  1018.563,
                  1020.491,
                  1022.42,
                  1024.348,
                  1026.277,
                  1028.205,
                  1030.134,
                  1032.062,
                  1033.991,
                  1035.919,
                  1037.848,
                  1039.776,
                  1041.705,
                  1043.633,
                  1045.562,
                  1047.49,
                  1049.418,
                  1051.347,
                  1053.275,
                  1055.204,
                  1057.132,
                  1059.061,
                  1060.989,
                  1062.918,
                  1064.846,
                  1066.775,
                  1068.703,
                  1070.632,
                  1072.56,
                  1074.489,
                  1076.417,
                  1078.345,
                  1080.274,
                  1082.202,
                  1084.131,
                  1086.059,
                  1087.988,
                  1089.916,
                  1091.845,
                  1093.773,
                  1095.702,
                  1097.63,
                  1099.559,
                  1101.487,
                  1103.416,
                  1105.344,
                  1107.272,
                  1109.201,
                  1111.129,
                  1113.058,
                  1114.986,
                  1116.915,
                  1118.843,
                  1120.772,
                  1122.7,
                  1124.629,
                  1126.557,
                  1128.486,
                  1130.414,
                  1132.343,
                  1134.271,
                  1136.199,
                  1138.128,
                  1140.056,
                  1141.985,
                  1143.913,
                  1145.842,
                  1147.77,
                  1149.699,
                  1151.627,
                  1153.556,
                  1155.484,
                  1157.413,
                  1159.341,
                  1161.27,
                  1163.198,
                  1165.126,
                  1167.055,
                  1168.983,
                  1170.912,
                  1172.84,
                  1174.769,
                  1176.697,
                  1178.626,
                  1180.554,
                  1182.483,
                  1184.411,
                  1186.34,
                  1188.268,
                  1190.197,
                  1192.125,
                  1194.053,
                  1195.982,
                  1197.91,
                  1199.839,
                  1201.767,
                  1203.696,
                  1205.624,
                  1207.553,
                  1209.481,
                  1211.41,
                  1213.338,
                  1215.267,
                  1217.195,
                  1219.124,
                  1221.052,
                  1222.98,
                  1224.909,
                  1226.837,
                  1228.766,
                  1230.694,
                  1232.623,
                  1234.551,
                  1236.48,
                  1238.408,
                  1240.337,
                  1242.265,
                  1244.194,
                  1246.122,
                  1248.051,
                  1249.979,
                  1251.907,
                  1253.836,
                  1255.764,
                  1257.693,
                  1259.621,
                  1261.55,
                  1263.478,
                  1265.407,
                  1267.335,
                  1269.264,
                  1271.192,
                  1273.121,
                  1275.049,
                  1276.978,
                  1278.906,
                  1280.834,
                  1282.763,
                  1284.691,
                  1286.62,
                  1288.548,
                  1290.477,
                  1292.405,
                  1294.334,
                  1296.262,
                  1298.191,
                  1300.119,
                  1302.048,
                  1303.976,
                  1305.905,
                  1307.833,
                  1309.761,
                  1311.69,
                  1313.618,
                  1315.547,
                  1317.475,
                  1319.404,
                  1321.332,
                  1323.261,
                  1325.189,
                  1327.118,
                  1329.046,
                  1330.975,
                  1332.903,
                  1334.832,
                  1336.76,
                  1338.688,
                  1340.617,
                  1342.545,
                  1344.474,
                  1346.402,
                  1348.331,
                  1350.259,
                  1352.188,
                  1354.116,
                  1356.045,
                  1357.973,
                  1359.902,
                  1361.83,
                  1363.759,
                  1365.687,
                  1367.615,
                  1369.544,
                  1371.472,
                  1373.401,
                  1375.329,
                  1377.258,
                  1379.186,
                  1381.115,
                  1383.043,
                  1384.972,
                  1386.9,
                  1388.829,
                  1390.757,
                  1392.686,
                  1394.614,
                  1396.542,
                  1398.471,
                  1400.399,
                  1402.328,
                  1404.256,
                  1406.185,
                  1408.113,
                  1410.042,
                  1411.97,
                  1413.899,
                  1415.827,
                  1417.756,
                  1419.684,
                  1421.613,
                  1423.541,
                  1425.469,
                  1427.398,
                  1429.326,
                  1431.255,
                  1433.183,
                  1435.112,
                  1437.04,
                  1438.969,
                  1440.897,
                  1442.826,
                  1444.754,
                  1446.683,
                  1448.611,
                  1450.54,
                  1452.468,
                  1454.396,
                  1456.325,
                  1458.253,
                  1460.182,
                  1462.11,
                  1464.039,
                  1465.967,
                  1467.896,
                  1469.824,
                  1471.753,
                  1473.681,
                  1475.61,
                  1477.538,
                  1479.467,
                  1481.395,
                  1483.323,
                  1485.252,
                  1487.18,
                  1489.109,
                  1491.037,
                  1492.966,
                  1494.894,
                  1496.823,
                  1498.751,
                  1500.68,
                  1502.608,
                  1504.537,
                  1506.465,
                  1508.394,
                  1510.322,
                  1512.25,
                  1514.179,
                  1516.107,
                  1518.036,
                  1519.964,
                  1521.893,
                  1523.821,
                  1525.75,
                  1527.678,
                  1529.607,
                  1531.535,
                  1533.464,
                  1535.392,
                  1537.321,
                  1539.249,
                  1541.177,
                  1543.106,
                  1545.034,
                  1546.963,
                  1548.891,
                  1550.82,
                  1552.748,
                  1554.677,
                  1556.605,
                  1558.534,
                  1560.462,
                  1562.391,
                  1564.319,
                  1566.248,
                  1568.176,
                  1570.104,
                  1572.033,
                  1573.961,
                  1575.89,
                  1577.818,
                  1579.747,
                  1581.675,
                  1583.604,
                  1585.532,
                  1587.461,
                  1589.389,
                  1591.318,
                  1593.246,
                  1595.175,
                  1597.103,
                  1599.031,
                  1600.96,
                  1602.888,
                  1604.817,
                  1606.745,
                  1608.674,
                  1610.602,
                  1612.531,
                  1614.459,
                  1616.388,
                  1618.316,
                  1620.245,
                  1622.173,
                  1624.102,
                  1626.03,
                  1627.958,
                  1629.887,
                  1631.815,
                  1633.744,
                  1635.672,
                  1637.601,
                  1639.529,
                  1641.458,
                  1643.386,
                  1645.315,
                  1647.243,
                  1649.172,
                  1651.1,
                  1653.029,
                  1654.957,
                  1656.885,
                  1658.814,
                  1660.742,
                  1662.671,
                  1664.599,
                  1666.528,
                  1668.456,
                  1670.385,
                  1672.313,
                  1674.242,
                  1676.17,
                  1678.099,
                  1680.027,
                  1681.956,
                  1683.884,
                  1685.813,
                  1687.741,
                  1689.669,
                  1691.598,
                  1693.526,
                  1695.455,
                  1697.383,
                  1699.312,
                  1701.24,
                  1703.169,
                  1705.097,
                  1707.026,
                  1708.954,
                  1710.883,
                  1712.811,
                  1714.74,
                  1716.668,
                  1718.596,
                  1720.525,
                  1722.453,
                  1724.382,
                  1726.31,
                  1728.239,
                  1730.167,
                  1732.096,
                  1734.024,
                  1735.953,
                  1737.881,
                  1739.81,
                  1741.738,
                  1743.667,
                  1745.595,
                  1747.523,
                  1749.452,
                  1751.38,
                  1753.309,
                  1755.237,
                  1757.166,
                  1759.094,
                  1761.023,
                  1762.951,
                  1764.88,
                  1766.808,
                  1768.737,
                  1770.665,
                  1772.594,
                  1774.522,
                  1776.45,
                  1778.379,
                  1780.307,
                  1782.236,
                  1784.164,
                  1786.093,
                  1788.021,
                  1789.95,
                  1791.878,
                  1793.807,
                  1795.735,
                  1797.664,
                  1799.592,
                  1801.521,
                  1803.449,
                  1805.377,
                  1807.306,
                  1809.234,
                  1811.163,
                  1813.091,
                  1815.02,
                  1816.948,
                  1818.877,
                  1820.805,
                  1822.734,
                  1824.662,
                  1826.591,
                  1828.519,
                  1830.448,
                  1832.376,
                  1834.304,
                  1836.233,
                  1838.161,
                  1840.09,
                  1842.018,
                  1843.947,
                  1845.875,
                  1847.804,
                  1849.732,
                  1851.661,
                  1853.589,
                  1855.518,
                  1857.446,
                  1859.375,
                  1861.303,
                  1863.231,
                  1865.16,
                  1867.088,
                  1869.017,
                  1870.945,
                  1872.874,
                  1874.802,
                  1876.731,
                  1878.659,
                  1880.588,
                  1882.516,
                  1884.445,
                  1886.373,
                  1888.302,
                  1890.23,
                  1892.158,
                  1894.087,
                  1896.015,
                  1897.944,
                  1899.872,
                  1901.801,
                  1903.729,
                  1905.658,
                  1907.586,
                  1909.515,
                  1911.443,
                  1913.372,
                  1915.3,
                  1917.229,
                  1919.157,
                  1921.085,
                  1923.014,
                  1924.942,
                  1926.871,
                  1928.799,
                  1930.728,
                  1932.656,
                  1934.585,
                  1936.513,
                  1938.442,
                  1940.37,
                  1942.299,
                  1944.227,
                  1946.156,
                  1948.084,
                  1950.012,
                  1951.941,
                  1953.869,
                  1955.798,
                  1957.726,
                  1959.655,
                  1961.583,
                  1963.512,
                  1965.44,
                  1967.369,
                  1969.297,
                  1971.226,
                  1973.154,
                  1975.083,
                  1977.011,
                  1978.939,
                  1980.868,
                  1982.796,
                  1984.725,
                  1986.653,
                  1988.582,
                  1990.51,
                  1992.439,
                  1994.367,
                  1996.296,
                  1998.224,
                  2000.153,
                  2002.081,
                  2004.01,
                  2005.938,
                  2007.866,
                  2009.795,
                  2011.723,
                  2013.652,
                  2015.58,
                  2017.509,
                  2019.437,
                  2021.366,
                  2023.294,
                  2025.223,
                  2027.151,
                  2029.08,
                  2031.008,
                  2032.937,
                  2034.865,
                  2036.793,
                  2038.722,
                  2040.65,
                  2042.579,
                  2044.507,
                  2046.436,
                  2048.364,
                  2050.293,
                  2052.221,
                  2054.15,
                  2056.078,
                  2058.007,
                  2059.935,
                  2061.864,
                  2063.792,
                  2065.72,
                  2067.649,
                  2069.577,
                  2071.506,
                  2073.434,
                  2075.363,
                  2077.291,
                  2079.22,
                  2081.148,
                  2083.077,
                  2085.005,
                  2086.934,
                  2088.862,
                  2090.791,
                  2092.719,
                  2094.647,
                  2096.576,
                  2098.504,
                  2100.433,
                  2102.361,
                  2104.29,
                  2106.218,
                  2108.147,
                  2110.075,
                  2112.004,
                  2113.932,
                  2115.861,
                  2117.789,
                  2119.718,
                  2121.646,
                  2123.574,
                  2125.503,
                  2127.431,
                  2129.36,
                  2131.288,
                  2133.217,
                  2135.145,
                  2137.074,
                  2139.002,
                  2140.931,
                  2142.859,
                  2144.788,
                  2146.716,
                  2148.645,
                  2150.573,
                  2152.501,
                  2154.43,
                  2156.358,
                  2158.287,
                  2160.215,
                  2162.144,
                  2164.072,
                  2166.001,
                  2167.929,
                  2169.858,
                  2171.786,
                  2173.715,
                  2175.643,
                  2177.572,
                  2179.5,
                  2181.428,
                  2183.357,
                  2185.285,
                  2187.214,
                  2189.142,
                  2191.071,
                  2192.999,
                  2194.928,
                  2196.856,
                  2198.785,
                  2200.713,
                  2202.642,
                  2204.57,
                  2206.499,
                  2208.427,
                  2210.355,
                  2212.284,
                  2214.212,
                  2216.141,
                  2218.069,
                  2219.998,
                  2221.926,
                  2223.855,
                  2225.783,
                  2227.712,
                  2229.64,
                  2231.569,
                  2233.497,
                  2235.426,
                  2237.354,
                  2239.282,
                  2241.211,
                  2243.139,
                  2245.068,
                  2246.996,
                  2248.925,
                  2250.853,
                  2252.782,
                  2254.71,
                  2256.639,
                  2258.567,
                  2260.496,
                  2262.424,
                  2264.353,
                  2266.281,
                  2268.209,
                  2270.138,
                  2272.066,
                  2273.995,
                  2275.923,
                  2277.852,
                  2279.78,
                  2281.709,
                  2283.637,
                  2285.566,
                  2287.494,
                  2289.423,
                  2291.351,
                  2293.28,
                  2295.208,
                  2297.136,
                  2299.065,
                  2300.993,
                  2302.922,
                  2304.85,
                  2306.779,
                  2308.707,
                  2310.636,
                  2312.564,
                  2314.493,
                  2316.421,
                  2318.35,
                  2320.278,
                  2322.207,
                  2324.135,
                  2326.063,
                  2327.992,
                  2329.92,
                  2331.849,
                  2333.777,
                  2335.706,
                  2337.634,
                  2339.563,
                  2341.491,
                  2343.42,
                  2345.348,
                  2347.277,
                  2349.205,
                  2351.134,
                  2353.062,
                  2354.99,
                  2356.919,
                  2358.847,
                  2360.776,
                  2362.704,
                  2364.633,
                  2366.561,
                  2368.49,
                  2370.418,
                  2372.347,
                  2374.275,
                  2376.204,
                  2378.132,
                  2380.061,
                  2381.989,
                  2383.917,
                  2385.846,
                  2387.774,
                  2389.703,
                  2391.631,
                  2393.56,
                  2395.488,
                  2397.417,
                  2399.345,
                  2401.274,
                  2403.202,
                  2405.131,
                  2407.059,
                  2408.988,
                  2410.916,
                  2412.844,
                  2414.773,
                  2416.701,
                  2418.63,
                  2420.558,
                  2422.487,
                  2424.415,
                  2426.344,
                  2428.272,
                  2430.201,
                  2432.129,
                  2434.058,
                  2435.986,
                  2437.915,
                  2439.843,
                  2441.771,
                  2443.7,
                  2445.628,
                  2447.557,
                  2449.485,
                  2451.414,
                  2453.342,
                  2455.271,
                  2457.199,
                  2459.128,
                  2461.056,
                  2462.985,
                  2464.913,
                  2466.842,
                  2468.77,
                  2470.698,
                  2472.627,
                  2474.555,
                  2476.484,
                  2478.412,
                  2480.341,
                  2482.269,
                  2484.198,
                  2486.126,
                  2488.055,
                  2489.983,
                  2491.912,
                  2493.84,
                  2495.769,
                  2497.697,
                  2499.625,
                  2501.554,
                  2503.482,
                  2505.411,
                  2507.339,
                  2509.268,
                  2511.196,
                  2513.125,
                  2515.053,
                  2516.982,
                  2518.91,
                  2520.839,
                  2522.767,
                  2524.696,
                  2526.624,
                  2528.552,
                  2530.481,
                  2532.409,
                  2534.338,
                  2536.266,
                  2538.195,
                  2540.123,
                  2542.052,
                  2543.98,
                  2545.909,
                  2547.837,
                  2549.766,
                  2551.694,
                  2553.623,
                  2555.551,
                  2557.479,
                  2559.408,
                  2561.336,
                  2563.265,
                  2565.193,
                  2567.122,
                  2569.05,
                  2570.979,
                  2572.907,
                  2574.836,
                  2576.764,
                  2578.693,
                  2580.621,
                  2582.55,
                  2584.478,
                  2586.406,
                  2588.335,
                  2590.263,
                  2592.192,
                  2594.12,
                  2596.049,
                  2597.977,
                  2599.906,
                  2601.834,
                  2603.763,
                  2605.691,
                  2607.62,
                  2609.548,
                  2611.477,
                  2613.405,
                  2615.333,
                  2617.262,
                  2619.19,
                  2621.119,
                  2623.047,
                  2624.976,
                  2626.904,
                  2628.833,
                  2630.761,
                  2632.69,
                  2634.618,
                  2636.547,
                  2638.475,
                  2640.404,
                  2642.332,
                  2644.26,
                  2646.189,
                  2648.117,
                  2650.046,
                  2651.974,
                  2653.903,
                  2655.831,
                  2657.76,
                  2659.688,
                  2661.617,
                  2663.545,
                  2665.474,
                  2667.402,
                  2669.331,
                  2671.259,
                  2673.188,
                  2675.116,
                  2677.044,
                  2678.973,
                  2680.901,
                  2682.83,
                  2684.758,
                  2686.687,
                  2688.615,
                  2690.544,
                  2692.472,
                  2694.401,
                  2696.329,
                  2698.258,
                  2700.186,
                  2702.115,
                  2704.043,
                  2705.971,
                  2707.9,
                  2709.828,
                  2711.757,
                  2713.685,
                  2715.614,
                  2717.542,
                  2719.471,
                  2721.399,
                  2723.328,
                  2725.256,
                  2727.185,
                  2729.113,
                  2731.042,
                  2732.97,
                  2734.898,
                  2736.827,
                  2738.755,
                  2740.684,
                  2742.612,
                  2744.541,
                  2746.469,
                  2748.398,
                  2750.326,
                  2752.255,
                  2754.183,
                  2756.112,
                  2758.04,
                  2759.969,
                  2761.897,
                  2763.825,
                  2765.754,
                  2767.682,
                  2769.611,
                  2771.539,
                  2773.468,
                  2775.396,
                  2777.325,
                  2779.253,
                  2781.182,
                  2783.11,
                  2785.039,
                  2786.967,
                  2788.896,
                  2790.824,
                  2792.752,
                  2794.681,
                  2796.609,
                  2798.538,
                  2800.466,
                  2802.395,
                  2804.323,
                  2806.252,
                  2808.18,
                  2810.109,
                  2812.037,
                  2813.966,
                  2815.894,
                  2817.823,
                  2819.751,
                  2821.679,
                  2823.608,
                  2825.536,
                  2827.465,
                  2829.393,
                  2831.322,
                  2833.25,
                  2835.179,
                  2837.107,
                  2839.036,
                  2840.964,
                  2842.893,
                  2844.821,
                  2846.75,
                  2848.678,
                  2850.606,
                  2852.535,
                  2854.463,
                  2856.392,
                  2858.32,
                  2860.249,
                  2862.177,
                  2864.106,
                  2866.034,
                  2867.963,
                  2869.891,
                  2871.82,
                  2873.748,
                  2875.677,
                  2877.605,
                  2879.533,
                  2881.462,
                  2883.39,
                  2885.319,
                  2887.247,
                  2889.176,
                  2891.104,
                  2893.033,
                  2894.961,
                  2896.89,
                  2898.818,
                  2900.747,
                  2902.675,
                  2904.604,
                  2906.532,
                  2908.46,
                  2910.389,
                  2912.317,
                  2914.246,
                  2916.174,
                  2918.103,
                  2920.031,
                  2921.96,
                  2923.888,
                  2925.817,
                  2927.745,
                  2929.674,
                  2931.602,
                  2933.531,
                  2935.459,
                  2937.387,
                  2939.316,
                  2941.244,
                  2943.173,
                  2945.101,
                  2947.03,
                  2948.958,
                  2950.887,
                  2952.815,
                  2954.744,
                  2956.672,
                  2958.601,
                  2960.529,
                  2962.458,
                  2964.386,
                  2966.314,
                  2968.243,
                  2970.171,
                  2972.1,
                  2974.028,
                  2975.957,
                  2977.885,
                  2979.814,
                  2981.742,
                  2983.671,
                  2985.599,
                  2987.528,
                  2989.456,
                  2991.385,
                  2993.313,
                  2995.241,
                  2997.17,
                  2999.098,
                  3001.027,
                  3002.955,
                  3004.884,
                  3006.812,
                  3008.741,
                  3010.669,
                  3012.598,
                  3014.526,
                  3016.455,
                  3018.383,
                  3020.312,
                  3022.24,
                  3024.168,
                  3026.097,
                  3028.025,
                  3029.954,
                  3031.882,
                  3033.811,
                  3035.739,
                  3037.668,
                  3039.596,
                  3041.525,
                  3043.453,
                  3045.382,
                  3047.31,
                  3049.239,
                  3051.167,
                  3053.095,
                  3055.024,
                  3056.952,
                  3058.881,
                  3060.809,
                  3062.738,
                  3064.666,
                  3066.595,
                  3068.523,
                  3070.452,
                  3072.38,
                  3074.309,
                  3076.237,
                  3078.166,
                  3080.094,
                  3082.022,
                  3083.951,
                  3085.879,
                  3087.808,
                  3089.736,
                  3091.665,
                  3093.593,
                  3095.522,
                  3097.45,
                  3099.379,
                  3101.307,
                  3103.236,
                  3105.164,
                  3107.093,
                  3109.021,
                  3110.949,
                  3112.878,
                  3114.806,
                  3116.735,
                  3118.663,
                  3120.592,
                  3122.52,
                  3124.449,
                  3126.377,
                  3128.306,
                  3130.234,
                  3132.163,
                  3134.091,
                  3136.02,
                  3137.948,
                  3139.876,
                  3141.805,
                  3143.733,
                  3145.662,
                  3147.59,
                  3149.519,
                  3151.447,
                  3153.376,
                  3155.304,
                  3157.233,
                  3159.161,
                  3161.09,
                  3163.018,
                  3164.947,
                  3166.875,
                  3168.803,
                  3170.732,
                  3172.66,
                  3174.589,
                  3176.517,
                  3178.446,
                  3180.374,
                  3182.303,
                  3184.231,
                  3186.16,
                  3188.088,
                  3190.017,
                  3191.945,
                  3193.874,
                  3195.802,
                  3197.73,
                  3199.659,
                  3201.587,
                  3203.516,
                  3205.444,
                  3207.373,
                  3209.301,
                  3211.23,
                  3213.158,
                  3215.087,
                  3217.015,
                  3218.944,
                  3220.872,
                  3222.801,
                  3224.729,
                  3226.657,
                  3228.586,
                  3230.514,
                  3232.443,
                  3234.371,
                  3236.3,
                  3238.228,
                  3240.157,
                  3242.085,
                  3244.014,
                  3245.942,
                  3247.871,
                  3249.799,
                  3251.728,
                  3253.656,
                  3255.584,
                  3257.513,
                  3259.441,
                  3261.37,
                  3263.298,
                  3265.227,
                  3267.155,
                  3269.084,
                  3271.012,
                  3272.941,
                  3274.869,
                  3276.798,
                  3278.726,
                  3280.655,
                  3282.583,
                  3284.511,
                  3286.44,
                  3288.368,
                  3290.297,
                  3292.225,
                  3294.154,
                  3296.082,
                  3298.011,
                  3299.939,
                  3301.868,
                  3303.796,
                  3305.725,
                  3307.653,
                  3309.582,
                  3311.51,
                  3313.438,
                  3315.367,
                  3317.295,
                  3319.224,
                  3321.152,
                  3323.081,
                  3325.009,
                  3326.938,
                  3328.866,
                  3330.795,
                  3332.723,
                  3334.652,
                  3336.58,
                  3338.509,
                  3340.437,
                  3342.365,
                  3344.294,
                  3346.222,
                  3348.151,
                  3350.079,
                  3352.008,
                  3353.936,
                  3355.865,
                  3357.793,
                  3359.722,
                  3361.65,
                  3363.579,
                  3365.507,
                  3367.436,
                  3369.364,
                  3371.292,
                  3373.221,
                  3375.149,
                  3377.078,
                  3379.006,
                  3380.935,
                  3382.863,
                  3384.792,
                  3386.72,
                  3388.649,
                  3390.577,
                  3392.506,
                  3394.434,
                  3396.363,
                  3398.291,
                  3400.219,
                  3402.148,
                  3404.076,
                  3406.005,
                  3407.933,
                  3409.862,
                  3411.79,
                  3413.719,
                  3415.647,
                  3417.576,
                  3419.504,
                  3421.433,
                  3423.361,
                  3425.29,
                  3427.218,
                  3429.146,
                  3431.075,
                  3433.003,
                  3434.932,
                  3436.86,
                  3438.789,
                  3440.717,
                  3442.646,
                  3444.574,
                  3446.503,
                  3448.431,
                  3450.36,
                  3452.288,
                  3454.217,
                  3456.145,
                  3458.073,
                  3460.002,
                  3461.93,
                  3463.859,
                  3465.787,
                  3467.716,
                  3469.644,
                  3471.573,
                  3473.501,
                  3475.43,
                  3477.358,
                  3479.287,
                  3481.215,
                  3483.144,
                  3485.072,
                  3487,
                  3488.929,
                  3490.857,
                  3492.786,
                  3494.714,
                  3496.643,
                  3498.571,
                  3500.5,
                  3502.428,
                  3504.357,
                  3506.285,
                  3508.214,
                  3510.142,
                  3512.071,
                  3513.999,
                  3515.927,
                  3517.856,
                  3519.784,
                  3521.713,
                  3523.641,
                  3525.57,
                  3527.498,
                  3529.427,
                  3531.355,
                  3533.284,
                  3535.212,
                  3537.141,
                  3539.069,
                  3540.998,
                  3542.926,
                  3544.854,
                  3546.783,
                  3548.711,
                  3550.64,
                  3552.568,
                  3554.497,
                  3556.425,
                  3558.354,
                  3560.282,
                  3562.211,
                  3564.139,
                  3566.068,
                  3567.996,
                  3569.925,
                  3571.853,
                  3573.781,
                  3575.71,
                  3577.638,
                  3579.567,
                  3581.495,
                  3583.424,
                  3585.352,
                  3587.281,
                  3589.209,
                  3591.138,
                  3593.066,
                  3594.995,
                  3596.923,
                  3598.852,
                  3600.78,
                  3602.708,
                  3604.637,
                  3606.565,
                  3608.494,
                  3610.422,
                  3612.351,
                  3614.279,
                  3616.208,
                  3618.136,
                  3620.065,
                  3621.993,
                  3623.922,
                  3625.85,
                  3627.779,
                  3629.707,
                  3631.635,
                  3633.564,
                  3635.492,
                  3637.421,
                  3639.349,
                  3641.278,
                  3643.206,
                  3645.135,
                  3647.063,
                  3648.992,
                  3650.92,
                  3652.849,
                  3654.777,
                  3656.706,
                  3658.634,
                  3660.563,
                  3662.491,
                  3664.419,
                  3666.348,
                  3668.276,
                  3670.205,
                  3672.133,
                  3674.062,
                  3675.99,
                  3677.919,
                  3679.847,
                  3681.776,
                  3683.704,
                  3685.633,
                  3687.561,
                  3689.49,
                  3691.418,
                  3693.346,
                  3695.275,
                  3697.203,
                  3699.132,
                  3701.06,
                  3702.989,
                  3704.917,
                  3706.846,
                  3708.774,
                  3710.703,
                  3712.631,
                  3714.56,
                  3716.488,
                  3718.417,
                  3720.345,
                  3722.273,
                  3724.202,
                  3726.13,
                  3728.059,
                  3729.987,
                  3731.916,
                  3733.844,
                  3735.773,
                  3737.701,
                  3739.63,
                  3741.558,
                  3743.487,
                  3745.415,
                  3747.344,
                  3749.272,
                  3751.2,
                  3753.129,
                  3755.057,
                  3756.986,
                  3758.914,
                  3760.843,
                  3762.771,
                  3764.7,
                  3766.628,
                  3768.557,
                  3770.485,
                  3772.414,
                  3774.342,
                  3776.271,
                  3778.199,
                  3780.127,
                  3782.056,
                  3783.984,
                  3785.913,
                  3787.841,
                  3789.77,
                  3791.698,
                  3793.627,
                  3795.555,
                  3797.484,
                  3799.412,
                  3801.341,
                  3803.269,
                  3805.198,
                  3807.126,
                  3809.054,
                  3810.983,
                  3812.911,
                  3814.84,
                  3816.768,
                  3818.697,
                  3820.625,
                  3822.554,
                  3824.482,
                  3826.411,
                  3828.339,
                  3830.268,
                  3832.196,
                  3834.125,
                  3836.053,
                  3837.981,
                  3839.91,
                  3841.838,
                  3843.767,
                  3845.695,
                  3847.624,
                  3849.552,
                  3851.481,
                  3853.409,
                  3855.338,
                  3857.266,
                  3859.195,
                  3861.123,
                  3863.052,
                  3864.98,
                  3866.908,
                  3868.837,
                  3870.765,
                  3872.694,
                  3874.622,
                  3876.551,
                  3878.479,
                  3880.408,
                  3882.336,
                  3884.265,
                  3886.193,
                  3888.122,
                  3890.05,
                  3891.979,
                  3893.907,
                  3895.835,
                  3897.764,
                  3899.692,
                  3901.621,
                  3903.549,
                  3905.478,
                  3907.406,
                  3909.335,
                  3911.263,
                  3913.192,
                  3915.12,
                  3917.049,
                  3918.977,
                  3920.906,
                  3922.834,
                  3924.762,
                  3926.691,
                  3928.619,
                  3930.548,
                  3932.476,
                  3934.405,
                  3936.333,
                  3938.262,
                  3940.19,
                  3942.119,
                  3944.047,
                  3945.976,
                  3947.904,
                  3949.833,
                  3951.761,
                  3953.689,
                  3955.618,
                  3957.546,
                  3959.475,
                  3961.403,
                  3963.332,
                  3965.26,
                  3967.189,
                  3969.117,
                  3971.046,
                  3972.974,
                  3974.903,
                  3976.831,
                  3978.76,
                  3980.688,
                  3982.616,
                  3984.545,
                  3986.473,
                  3988.402,
                  3990.33,
                  3992.259,
                  3994.187,
                  3996.116,
                  3998.044,
                  3999.973,
                  4001.901,
                  4003.83,
                  4005.758,
                  4007.687,
                  4009.615,
                  4011.543,
                  4013.472,
                  4015.4,
                  4017.329,
                  4019.257,
                  4021.186,
                  4023.114,
                  4025.043,
                  4026.971,
                  4028.9,
                  4030.828,
                  4032.757,
                  4034.685,
                  4036.614,
                  4038.542,
                  4040.47,
                  4042.399,
                  4044.327,
                  4046.256,
                  4048.184,
                  4050.113,
                  4052.041,
                  4053.97,
                  4055.898,
                  4057.827,
                  4059.755,
                  4061.684,
                  4063.612,
                  4065.541,
                  4067.469,
                  4069.397,
                  4071.326,
                  4073.254,
                  4075.183,
                  4077.111,
                  4079.04,
                  4080.968,
                  4082.897,
                  4084.825,
                  4086.754,
                  4088.682,
                  4090.611,
                  4092.539,
                  4094.468,
                  4096.396,
                  4098.324,
                  4100.253,
                  4102.181,
                  4104.11,
                  4106.038,
                  4107.967,
                  4109.895,
                  4111.824,
                  4113.752,
                  4115.681,
                  4117.609,
                  4119.538,
                  4121.466,
                  4123.395,
                  4125.323,
                  4127.251,
                  4129.18,
                  4131.108,
                  4133.037,
                  4134.965,
                  4136.894,
                  4138.822,
                  4140.75,
                  4142.679,
                  4144.607,
                  4146.536,
                  4148.464,
                  4150.393,
                  4152.321,
                  4154.25,
                  4156.178,
                  4158.107,
                  4160.035,
                  4161.964,
                  4163.892,
                  4165.821,
                  4167.749,
                  4169.678,
                  4171.606,
                  4173.535,
                  4175.463,
                  4177.392,
                  4179.32,
                  4181.249,
                  4183.177,
                  4185.105,
                  4187.034,
                  4188.962,
                  4190.891,
                  4192.819,
                  4194.748,
                  4196.676,
                  4198.604,
                  4200.533,
                  4202.461,
                  4204.39,
                  4206.318,
                  4208.247,
                  4210.175,
                  4212.104,
                  4214.032,
                  4215.961,
                  4217.889,
                  4219.818,
                  4221.746,
                  4223.675,
                  4225.603,
                  4227.532,
                  4229.46,
                  4231.389,
                  4233.317,
                  4235.246,
                  4237.174,
                  4239.103,
                  4241.031,
                  4242.959,
                  4244.888,
                  4246.816,
                  4248.745,
                  4250.673,
                  4252.602,
                  4254.53,
                  4256.458,
                  4258.387,
                  4260.315,
                  4262.244,
                  4264.172,
                  4266.101,
                  4268.029,
                  4269.958,
                  4271.886,
                  4273.815,
                  4275.743,
                  4277.672,
                  4279.6,
                  4281.529,
                  4283.457,
                  4285.386,
                  4287.314,
                  4289.243,
                  4291.171,
                  4293.1,
                  4295.028,
                  4296.957,
                  4298.885,
                  4300.813,
                  4302.742,
                  4304.67,
                  4306.599,
                  4308.527,
                  4310.456,
                  4312.384,
                  4314.313,
                  4316.241,
                  4318.169,
                  4320.098,
                  4322.026,
                  4323.955,
                  4325.883,
                  4327.812,
                  4329.74,
                  4331.669,
                  4333.597,
                  4335.526,
                  4337.454,
                  4339.383,
                  4341.311,
                  4343.24,
                  4345.168,
                  4347.097,
                  4349.025,
                  4350.954,
                  4352.882,
                  4354.811,
                  4356.739,
                  4358.667,
                  4360.596,
                  4362.524,
                  4364.453,
                  4366.381,
                  4368.31,
                  4370.238,
                  4372.167,
                  4374.095,
                  4376.023,
                  4377.952
                ]
              }
            ]
          }
        },
        "hasAxisType": "x-axis"
      },
      {
        "y-axis": {
          "parameter": {
            "quantity": "Intensity (Arbitrary Units)",
            "property": "Intensity (Arbitrary Units)",
            "datatype": "decimal",
            "numericValueArray": [
              {
                "numberArray": [
                  0,
                  315.7495,
                  313.0431,
                  305.9511,
                  292.9839,
                  277.9562,
                  259.9543,
                  227.2644,
                  195.175,
                  168.0104,
                  145.6647,
                  127.3856,
                  112.5015,
                  100.3095,
                  90.30214,
                  82.1692,
                  75.45954,
                  69.85247,
                  65.16174,
                  61.44316,
                  58.99832,
                  57.20933,
                  55.2413,
                  53.11327,
                  51.33566,
                  50.14426,
                  49.06162,
                  47.90601,
                  46.83577,
                  45.9945,
                  45.37367,
                  45.03585,
                  45.01725,
                  45.26482,
                  45.97874,
                  46.78489,
                  47.34172,
                  47.71177,
                  48.14371,
                  48.78814,
                  49.264,
                  49.36725,
                  49.46129,
                  49.69989,
                  50.11853,
                  50.83463,
                  51.86502,
                  53.19987,
                  54.79124,
                  56.71294,
                  59.30035,
                  62.12315,
                  64.62635,
                  66.89883,
                  68.31648,
                  69.10697,
                  68.81088,
                  66.79235,
                  63.9224,
                  60.71547,
                  57.17361,
                  54.35508,
                  52.21067,
                  50.72919,
                  50.23657,
                  50.05223,
                  49.79467,
                  49.49638,
                  49.31297,
                  49.29842,
                  49.11012,
                  48.78974,
                  48.13766,
                  46.9229,
                  45.45714,
                  44.02998,
                  42.66603,
                  41.58692,
                  40.81953,
                  40.23731,
                  39.81904,
                  39.56596,
                  39.60325,
                  39.79242,
                  39.72035,
                  39.38465,
                  39.12716,
                  39.07639,
                  38.99943,
                  38.80244,
                  38.54942,
                  38.22814,
                  37.90488,
                  37.86815,
                  38.1903,
                  38.56852,
                  38.92791,
                  39.32714,
                  39.87355,
                  40.43635,
                  40.69379,
                  40.71107,
                  41.17488,
                  42.53875,
                  43.64488,
                  43.95549,
                  44.31913,
                  45.49529,
                  47.01001,
                  48.15569,
                  48.93905,
                  49.24153,
                  48.52189,
                  48.06599,
                  48.00277,
                  48.37914,
                  49.37099,
                  50.78062,
                  52.24878,
                  53.79754,
                  55.25388,
                  57.07776,
                  58.15248,
                  58.33545,
                  57.51293,
                  55.4585,
                  52.45623,
                  49.2113,
                  45.55291,
                  42.29065,
                  39.26637,
                  36.91906,
                  35.69161,
                  34.8792,
                  33.95228,
                  33.04622,
                  32.58469,
                  32.67793,
                  32.72836,
                  32.69221,
                  32.73096,
                  32.97612,
                  33.21943,
                  33.25328,
                  33.23085,
                  33.53527,
                  34.17529,
                  34.47425,
                  34.29568,
                  34.26951,
                  34.67901,
                  35.16048,
                  35.52029,
                  35.86611,
                  36.42348,
                  37.1349,
                  37.53445,
                  37.55132,
                  37.74035,
                  38.42742,
                  38.98012,
                  39.03463,
                  39.01092,
                  39.29831,
                  39.81755,
                  40.43474,
                  41.15284,
                  41.43668,
                  40.81372,
                  40.60311,
                  41.28596,
                  42.1816,
                  42.90045,
                  43.62033,
                  44.6287,
                  45.85088,
                  47.00042,
                  48.04449,
                  49.06761,
                  50.07209,
                  51.07717,
                  52.06818,
                  53.08665,
                  54.21046,
                  55.35139,
                  56.4341,
                  57.45452,
                  58.19568,
                  58.64558,
                  58.76177,
                  58.6424,
                  58.08939,
                  56.89909,
                  55.3456,
                  53.56097,
                  51.64569,
                  49.75805,
                  47.88763,
                  46.15626,
                  44.56307,
                  43.11,
                  41.75789,
                  40.59775,
                  39.84077,
                  39.12487,
                  37.99724,
                  36.78714,
                  36.32055,
                  36.61025,
                  36.35173,
                  35.43326,
                  34.5929,
                  33.85342,
                  33.40339,
                  33.65158,
                  33.85948,
                  33.47828,
                  32.85331,
                  32.56309,
                  32.54138,
                  32.30806,
                  31.85249,
                  31.49471,
                  31.30725,
                  31.13723,
                  30.88886,
                  30.70182,
                  30.7312,
                  30.77268,
                  30.6099,
                  30.28675,
                  29.8558,
                  29.36312,
                  29.1825,
                  29.43181,
                  29.49972,
                  29.11001,
                  28.77502,
                  28.58727,
                  28.50733,
                  28.58574,
                  28.70944,
                  28.73493,
                  28.68777,
                  28.60787,
                  28.4971,
                  28.44156,
                  28.5181,
                  28.47656,
                  28.1755,
                  27.93393,
                  27.87986,
                  27.86993,
                  27.79539,
                  27.7258,
                  27.74285,
                  27.82116,
                  27.88816,
                  27.93779,
                  28.03311,
                  28.24012,
                  28.34891,
                  28.34672,
                  28.26781,
                  27.99261,
                  27.82844,
                  28.03514,
                  28.32318,
                  28.44726,
                  28.50208,
                  28.66912,
                  28.93029,
                  29.12531,
                  29.24935,
                  29.32092,
                  29.32592,
                  29.31271,
                  29.25534,
                  29.27042,
                  29.4862,
                  29.66618,
                  29.63177,
                  29.56263,
                  29.62214,
                  29.76913,
                  29.96169,
                  30.18276,
                  30.28729,
                  30.27414,
                  30.25034,
                  30.20129,
                  30.34543,
                  30.94849,
                  31.23768,
                  30.68087,
                  30.17784,
                  30.09911,
                  30.20999,
                  30.43703,
                  30.66528,
                  30.68468,
                  30.56714,
                  30.48849,
                  30.45713,
                  30.56727,
                  30.86422,
                  30.82711,
                  30.13559,
                  29.76818,
                  30.21344,
                  30.43223,
                  29.94245,
                  29.49094,
                  29.50722,
                  29.64599,
                  29.61577,
                  29.54558,
                  29.60443,
                  29.7384,
                  29.81579,
                  29.84368,
                  29.9418,
                  30.16199,
                  30.22078,
                  30.01629,
                  29.84447,
                  29.65939,
                  29.60697,
                  29.77773,
                  29.96494,
                  30.08413,
                  30.20826,
                  30.4703,
                  30.6544,
                  30.47519,
                  30.2092,
                  30.21282,
                  30.43779,
                  30.80015,
                  31.27502,
                  31.64362,
                  31.89429,
                  32.26817,
                  32.78191,
                  33.22678,
                  33.52992,
                  34.01214,
                  34.76948,
                  35.63728,
                  36.48758,
                  37.56634,
                  38.94038,
                  40.60958,
                  42.40973,
                  44.67818,
                  47.52824,
                  51.16109,
                  55.56082,
                  61.09788,
                  68.41175,
                  77.58739,
                  88.90057,
                  102.2408,
                  117.3382,
                  134.057,
                  149.6206,
                  163.891,
                  176.052,
                  185.1693,
                  194.5519,
                  203.6099,
                  214.8591,
                  230.2781,
                  245.4954,
                  261.2498,
                  273.6429,
                  281.4022,
                  284.427,
                  283.2782,
                  276.5761,
                  261.8064,
                  241.7883,
                  218.0542,
                  192.7114,
                  168.6089,
                  146.015,
                  125.5105,
                  107.1988,
                  91.89207,
                  79.60176,
                  69.32143,
                  61.11995,
                  54.66716,
                  50.13137,
                  46.90797,
                  45.26515,
                  44.15112,
                  43.46384,
                  43.2979,
                  43.77235,
                  44.54369,
                  45.48659,
                  46.77455,
                  48.7535,
                  50.56705,
                  51.72886,
                  52.76266,
                  53.93648,
                  55.06017,
                  55.92768,
                  56.79707,
                  57.97141,
                  59.17624,
                  60.31337,
                  61.07692,
                  61.14252,
                  60.54998,
                  59.28037,
                  57.41809,
                  54.99915,
                  52.16823,
                  49.33606,
                  46.50448,
                  43.61684,
                  40.80968,
                  38.74733,
                  37.3578,
                  35.91201,
                  34.37956,
                  33.1455,
                  32.25959,
                  31.10513,
                  29.53824,
                  28.45201,
                  28.06402,
                  27.56799,
                  26.83063,
                  26.1648,
                  25.56311,
                  25.07708,
                  24.81855,
                  24.50125,
                  23.97239,
                  23.58121,
                  23.48022,
                  23.37756,
                  23.15361,
                  23.00402,
                  22.92159,
                  23.03264,
                  23.56381,
                  23.99363,
                  23.93389,
                  23.96344,
                  24.48508,
                  25.01617,
                  25.19197,
                  25.46878,
                  26.18854,
                  26.93435,
                  27.45736,
                  27.93966,
                  28.5451,
                  29.12789,
                  29.50678,
                  29.8364,
                  30.42529,
                  30.86005,
                  30.6738,
                  30.28064,
                  30.0951,
                  29.79514,
                  29.04898,
                  28.09184,
                  27.01133,
                  26.02389,
                  25.42182,
                  25.05266,
                  24.72645,
                  24.47657,
                  24.38192,
                  24.41006,
                  24.53574,
                  24.72115,
                  24.89985,
                  25.08581,
                  25.38816,
                  25.66563,
                  25.574,
                  25.42801,
                  25.85136,
                  26.30124,
                  26.07648,
                  25.4916,
                  24.73839,
                  23.96509,
                  23.42959,
                  23.02609,
                  22.62074,
                  22.21295,
                  21.87872,
                  21.57973,
                  21.14878,
                  20.67529,
                  20.27649,
                  20.00929,
                  19.98717,
                  19.97044,
                  19.753,
                  19.52371,
                  19.45432,
                  19.34487,
                  18.86898,
                  18.40892,
                  18.47567,
                  18.67868,
                  18.62827,
                  18.47468,
                  18.24391,
                  18.10066,
                  18.35656,
                  18.56606,
                  18.33436,
                  18.0502,
                  17.86952,
                  17.80889,
                  18.00091,
                  18.13566,
                  18.02728,
                  17.8462,
                  17.65823,
                  17.53718,
                  17.48936,
                  17.42002,
                  17.31805,
                  17.28321,
                  17.29773,
                  17.35128,
                  17.56989,
                  17.65821,
                  17.36874,
                  17.23514,
                  17.53788,
                  17.70791,
                  17.57261,
                  17.44108,
                  17.32537,
                  17.36742,
                  17.6481,
                  17.6398,
                  17.2312,
                  17.13981,
                  17.45303,
                  17.56512,
                  17.45873,
                  17.41032,
                  17.39136,
                  17.48238,
                  17.6855,
                  17.76786,
                  17.77029,
                  17.96254,
                  18.26479,
                  18.19815,
                  17.87151,
                  17.7011,
                  17.66386,
                  17.82515,
                  18.08784,
                  18.13096,
                  18.0783,
                  18.09894,
                  18.13427,
                  18.22214,
                  18.33536,
                  18.40991,
                  18.44656,
                  18.38044,
                  18.38682,
                  18.68697,
                  18.87304,
                  18.65908,
                  18.45815,
                  18.44758,
                  18.42717,
                  18.35445,
                  18.26951,
                  18.1582,
                  18.15726,
                  18.30289,
                  18.40566,
                  18.41685,
                  18.41755,
                  18.45294,
                  18.42026,
                  18.29056,
                  18.17941,
                  18.11516,
                  18.1028,
                  18.16405,
                  18.29535,
                  18.37593,
                  18.35023,
                  18.30917,
                  18.26615,
                  18.2607,
                  18.3102,
                  18.32173,
                  18.30113,
                  18.26531,
                  18.21792,
                  18.17108,
                  18.00765,
                  17.92912,
                  18.10987,
                  18.25158,
                  18.24795,
                  18.2295,
                  18.2152,
                  18.41009,
                  18.81613,
                  18.98142,
                  18.90373,
                  18.96277,
                  19.15836,
                  19.25746,
                  19.27204,
                  19.19171,
                  19.11188,
                  19.27812,
                  19.52867,
                  19.69329,
                  19.77271,
                  19.7042,
                  19.72875,
                  20.07164,
                  20.37904,
                  20.44524,
                  20.42727,
                  20.41459,
                  20.34986,
                  20.23368,
                  20.15121,
                  20.1075,
                  20.12136,
                  20.12756,
                  20.11271,
                  20.08035,
                  19.95485,
                  19.83516,
                  19.83135,
                  19.77154,
                  19.48125,
                  19.21311,
                  19.10267,
                  19.15831,
                  19.40515,
                  19.28607,
                  18.7591,
                  18.69275,
                  19.00822,
                  18.86376,
                  18.50721,
                  18.59763,
                  18.76921,
                  18.68863,
                  18.57634,
                  18.47005,
                  18.34651,
                  18.2292,
                  18.16961,
                  18.14615,
                  18.15457,
                  18.35046,
                  18.29045,
                  17.79051,
                  17.65516,
                  17.92029,
                  18.00562,
                  17.92251,
                  17.76209,
                  17.59419,
                  17.53119,
                  17.56888,
                  17.77239,
                  17.86204,
                  17.64063,
                  17.49631,
                  17.61454,
                  17.80803,
                  18.02967,
                  18.04301,
                  17.76671,
                  17.66405,
                  17.74547,
                  17.76822,
                  17.74729,
                  17.76367,
                  17.81316,
                  17.81967,
                  17.74866,
                  17.71462,
                  17.63185,
                  17.39179,
                  17.39133,
                  17.6248,
                  17.71745,
                  17.72369,
                  17.6639,
                  17.57087,
                  17.5026,
                  17.4493,
                  17.4798,
                  17.50635,
                  17.49547,
                  17.41637,
                  17.24146,
                  17.14525,
                  17.07531,
                  17.02001,
                  17.02443,
                  16.97029,
                  16.86951,
                  16.89522,
                  16.96216,
                  16.87395,
                  16.80168,
                  16.83332,
                  16.86385,
                  16.86208,
                  16.9548,
                  17.19735,
                  17.11996,
                  16.7777,
                  16.6641,
                  16.79952,
                  17.05691,
                  17.10065,
                  16.91415,
                  16.83986,
                  16.81499,
                  16.82563,
                  17.01221,
                  17.16988,
                  17.16562,
                  17.00655,
                  16.8765,
                  16.89871,
                  16.95306,
                  17.05851,
                  17.00949,
                  16.79923,
                  16.64253,
                  16.42671,
                  16.553,
                  17.00988,
                  16.89702,
                  16.64329,
                  16.9573,
                  17.22083,
                  17.0861,
                  17.02258,
                  17.14837,
                  17.14592,
                  17.00869,
                  16.81438,
                  16.69023,
                  16.80615,
                  16.93702,
                  17.108,
                  17.08988,
                  16.73713,
                  16.64371,
                  16.89402,
                  16.97336,
                  16.87746,
                  16.83162,
                  16.85583,
                  16.69561,
                  16.56394,
                  16.73698,
                  16.87519,
                  16.91124,
                  16.90523,
                  16.84751,
                  16.90923,
                  16.97331,
                  16.91695,
                  16.89218,
                  16.88232,
                  16.81336,
                  16.72152,
                  16.55759,
                  16.43379,
                  16.56367,
                  16.83663,
                  16.97371,
                  16.83709,
                  16.52288,
                  16.40197,
                  16.49027,
                  16.57668,
                  16.56123,
                  15.76945,
                  16.29218,
                  16.57687,
                  16.63634,
                  15.79598,
                  16.11756,
                  15.97349,
                  15.81033,
                  16.29544,
                  15.58596,
                  16.06079,
                  16.02371,
                  16.07982,
                  16.06376,
                  16.06135,
                  16.11412,
                  16.05737,
                  15.91251,
                  15.91494,
                  16.03878,
                  16.01695,
                  15.93808,
                  15.93479,
                  15.89966,
                  15.78306,
                  15.5018,
                  15.00741,
                  15.00217,
                  15.35329,
                  15.33417,
                  15.18735,
                  15.12189,
                  15.10382,
                  15.04312,
                  14.9869,
                  15.05708,
                  15.13818,
                  15.16551,
                  15.1825,
                  14.98499,
                  14.63566,
                  14.61844,
                  14.6314,
                  14.44622,
                  14.373,
                  14.54728,
                  14.69195,
                  14.60903,
                  14.42834,
                  14.26328,
                  14.28454,
                  14.2819,
                  14.11827,
                  14.10157,
                  14.18233,
                  14.22502,
                  14.17648,
                  14.09463,
                  14.19478,
                  14.25798,
                  14.20413,
                  14.18072,
                  14.20415,
                  14.22614,
                  14.05996,
                  13.86041,
                  13.79956,
                  13.81133,
                  13.69487,
                  13.61926,
                  13.76631,
                  13.90863,
                  13.93425,
                  13.90971,
                  13.96994,
                  13.99747,
                  13.8598,
                  13.83852,
                  13.84678,
                  13.60777,
                  13.45226,
                  13.59717,
                  13.8592,
                  13.80979,
                  13.5778,
                  13.49259,
                  13.49141,
                  13.3615,
                  13.25509,
                  13.3595,
                  13.49385,
                  13.52674,
                  13.34694,
                  13.24842,
                  13.39149,
                  13.52667,
                  13.46461,
                  13.18132,
                  13.0094,
                  12.98396,
                  12.98556,
                  13.05676,
                  13.13095,
                  13.1467,
                  13.05353,
                  12.9321,
                  12.93917,
                  12.988,
                  12.88701,
                  12.7411,
                  12.75098,
                  12.9189,
                  12.91746,
                  12.81923,
                  12.80133,
                  12.81359,
                  12.79993,
                  12.6453,
                  12.45129,
                  12.4056,
                  12.52217,
                  12.53947,
                  12.41545,
                  12.31766,
                  12.43085,
                  12.48031,
                  12.27124,
                  12.27621,
                  12.54451,
                  12.51001,
                  12.34857,
                  12.38372,
                  12.28273,
                  12.03903,
                  11.97208,
                  12.01533,
                  12.13041,
                  12.23545,
                  12.12639,
                  11.83874,
                  11.71379,
                  11.91559,
                  12.03999,
                  11.97324,
                  11.94412,
                  12.05704,
                  12.02074,
                  11.877,
                  11.8204,
                  11.76603,
                  11.74225,
                  11.67117,
                  11.56487,
                  11.4688,
                  11.38897,
                  11.21206,
                  11.08264,
                  11.27905,
                  11.50245,
                  11.45862,
                  11.17926,
                  10.97383,
                  11.02865,
                  11.16669,
                  11.33105,
                  11.26445,
                  10.89405,
                  10.6835,
                  10.68295,
                  10.66181,
                  10.65599,
                  10.6552,
                  10.57644,
                  10.59273,
                  10.60522,
                  10.48631,
                  10.58216,
                  10.67146,
                  10.43763,
                  10.47842,
                  10.50615,
                  10.36503,
                  10.34019,
                  10.31754,
                  10.26504,
                  10.09966,
                  10.01358,
                  9.977126,
                  9.964934,
                  9.937546,
                  9.946524,
                  9.915315,
                  9.953232,
                  10.1263,
                  10.03691,
                  9.792672,
                  9.626885,
                  9.693809,
                  9.880954,
                  9.906256,
                  9.806021,
                  9.677508,
                  9.5918,
                  9.514446,
                  9.409374,
                  9.326486,
                  9.439112,
                  9.571145,
                  9.509465,
                  9.502152,
                  9.475199,
                  9.402854,
                  9.391131,
                  9.397271,
                  9.385499,
                  9.386297,
                  9.327942,
                  9.163657,
                  9.201425,
                  9.262855,
                  9.159497,
                  9.156933,
                  9.045358,
                  9.061657,
                  9.26125,
                  9.217695,
                  9.060637,
                  9.015443,
                  8.918653,
                  8.879678,
                  9.080422,
                  9.123651,
                  8.953622,
                  8.713967,
                  8.646252,
                  8.765455,
                  8.613283,
                  8.652267,
                  8.876057,
                  8.742772,
                  8.493427,
                  8.44321,
                  8.529511,
                  8.719187,
                  8.822557,
                  8.640518,
                  8.509597,
                  8.465816,
                  8.605801,
                  8.69602,
                  8.488089,
                  8.358187,
                  8.332034,
                  8.370324,
                  8.430939,
                  8.572001,
                  8.474447,
                  8.221458,
                  8.08485,
                  8.042898,
                  8.098184,
                  8.226518,
                  8.296699,
                  8.314471,
                  8.29876,
                  8.199642,
                  8.254795,
                  8.42167,
                  8.458892,
                  8.555735,
                  8.620601,
                  8.431485,
                  8.182903,
                  8.087701,
                  8.160691,
                  8.285165,
                  8.211269,
                  8.0328,
                  7.909961,
                  7.920517,
                  7.969194,
                  7.982772,
                  7.978684,
                  7.962563,
                  7.939012,
                  7.832461,
                  7.774667,
                  7.906713,
                  7.914763,
                  7.899894,
                  7.867997,
                  7.71968,
                  7.827784,
                  7.855986,
                  7.649442,
                  7.723387,
                  7.800974,
                  7.574822,
                  7.597299,
                  7.850953,
                  7.930059,
                  7.747709,
                  7.560549,
                  7.449101,
                  7.437772,
                  7.361521,
                  7.294597,
                  7.315474,
                  7.267224,
                  7.264114,
                  7.270646,
                  7.234981,
                  7.261546,
                  7.368649,
                  7.382587,
                  7.424412,
                  7.367307,
                  7.202052,
                  6.995795,
                  7.004757,
                  7.198408,
                  7.208962,
                  7.040427,
                  6.977951,
                  7.058286,
                  7.103126,
                  7.028848,
                  6.911447,
                  6.985827,
                  7.03786,
                  6.998266,
                  6.92,
                  6.763975,
                  6.613035,
                  6.628587,
                  6.773714,
                  6.72994,
                  6.703171,
                  6.720832,
                  6.773428,
                  6.836036,
                  6.587697,
                  6.454259,
                  6.612779,
                  6.668479,
                  6.558841,
                  6.425532,
                  6.511306,
                  6.586978,
                  6.467359,
                  6.536359,
                  6.545826,
                  6.254959,
                  6.257091,
                  6.391014,
                  6.393572,
                  6.358473,
                  6.23557,
                  6.185021,
                  6.252313,
                  6.409487,
                  6.401249,
                  6.281622,
                  6.202604,
                  6.158425,
                  6.13094,
                  6.03275,
                  5.895923,
                  5.862598,
                  5.933453,
                  5.920836,
                  5.931035,
                  5.882265,
                  5.730648,
                  5.823207,
                  5.977609,
                  5.848238,
                  5.688178,
                  5.76205,
                  5.963481,
                  5.879518,
                  5.704939,
                  5.699682,
                  5.655782,
                  5.619914,
                  5.673409,
                  5.647521,
                  5.567953,
                  5.505424,
                  5.554562,
                  5.682938,
                  5.665983,
                  5.522636,
                  5.530042,
                  5.603767,
                  5.569719,
                  5.449133,
                  5.42371,
                  5.491496,
                  5.456241,
                  5.461989,
                  5.339144,
                  5.255322,
                  5.294523,
                  5.493574,
                  5.504356,
                  5.394891,
                  5.391573,
                  5.399335,
                  5.225209,
                  5.363174,
                  5.515379,
                  5.405145,
                  5.333158,
                  5.276059,
                  5.22032,
                  5.046706,
                  4.916539,
                  5.141919,
                  5.253243,
                  5.209569,
                  5.167945,
                  5.053243,
                  5.10653,
                  5.099557,
                  5.022246,
                  5.053438,
                  5.047321,
                  5.005177,
                  4.902784,
                  4.911451,
                  5.046835,
                  4.894536,
                  4.818054,
                  4.985489,
                  4.910372,
                  4.817068,
                  4.88945,
                  4.895076,
                  4.838128,
                  4.766698,
                  4.576403,
                  4.477458,
                  4.632846,
                  4.597975,
                  4.570195,
                  4.675406,
                  4.580133,
                  4.469801,
                  4.604019,
                  4.736641,
                  4.77473,
                  4.613629,
                  4.608604,
                  4.737395,
                  4.627347,
                  4.499327,
                  4.459903,
                  4.370193,
                  4.286737,
                  4.228827,
                  4.318046,
                  4.391847,
                  4.37854,
                  4.334131,
                  4.343786,
                  4.343302,
                  4.318169,
                  4.346545,
                  4.42495,
                  4.267237,
                  4.183797,
                  4.365076,
                  4.359111,
                  4.293267,
                  4.348205,
                  4.44159,
                  4.377436,
                  4.367339,
                  4.409726,
                  4.27726,
                  4.176728,
                  4.137766,
                  4.139558,
                  4.175638,
                  4.098588,
                  4.07673,
                  4.175583,
                  4.14034,
                  4.06858,
                  3.798456,
                  3.799122,
                  3.965616,
                  3.842831,
                  3.752716,
                  3.731801,
                  3.886631,
                  3.867042,
                  3.618221,
                  3.748764,
                  3.811585,
                  3.753023,
                  4.013589,
                  4.033601,
                  3.68921,
                  3.568119,
                  3.624018,
                  3.728898,
                  3.58228,
                  3.587687,
                  3.733134,
                  3.681062,
                  3.468188,
                  3.34312,
                  3.453003,
                  3.449267,
                  3.356954,
                  3.454566,
                  3.530066,
                  3.554666,
                  3.416146,
                  3.345479,
                  3.458248,
                  3.300166,
                  3.108626,
                  3.099782,
                  3.442014,
                  3.597171,
                  3.521411,
                  3.463629,
                  3.286008,
                  3.096062,
                  3.258185,
                  3.339592,
                  3.33216,
                  3.404088,
                  3.367293,
                  3.212535,
                  2.982961,
                  3.036248,
                  3.202605,
                  3.240246,
                  3.267865,
                  3.219182,
                  3.034636,
                  3.044387,
                  3.099889,
                  3.154592,
                  3.006867,
                  2.841931,
                  2.913309,
                  2.854607,
                  2.861265,
                  3.027107,
                  3.004126,
                  2.866768,
                  2.725096,
                  2.827225,
                  2.944059,
                  2.912716,
                  2.881717,
                  2.888853,
                  2.887897,
                  2.954413,
                  2.862426,
                  2.679061,
                  2.88143,
                  2.939691,
                  2.887367,
                  2.840902,
                  2.776614,
                  2.714197,
                  2.631986,
                  2.600611,
                  2.57118,
                  2.533185,
                  2.523815,
                  2.614691,
                  2.779703,
                  2.801104,
                  2.692943,
                  2.527694,
                  2.617412,
                  2.687116,
                  2.637199,
                  2.446658,
                  2.449511,
                  2.625665,
                  2.63594,
                  2.709253,
                  2.730751,
                  2.510471,
                  2.433944,
                  2.373459,
                  2.283397,
                  2.508654,
                  2.505537,
                  2.169164,
                  2.417396,
                  2.543357,
                  2.371906,
                  2.344986,
                  2.362195,
                  2.313398,
                  2.238444,
                  2.27597,
                  2.370276,
                  2.492784,
                  2.333019,
                  2.143511,
                  2.102883,
                  2.367513,
                  2.340482,
                  2.079381,
                  2.108774,
                  2.132914,
                  2.17585,
                  2.199509,
                  2.273293,
                  2.36478,
                  2.406158,
                  2.273264,
                  2.132843,
                  2.054219,
                  2.122951,
                  2.165919,
                  2.172779,
                  2.23285,
                  2.033478,
                  1.891122,
                  2.035479,
                  2.062246,
                  1.971306,
                  1.837405,
                  2.087119,
                  2.17154,
                  2.084652,
                  1.998715,
                  1.916888,
                  1.789464,
                  1.54352,
                  1.917071,
                  2.05707,
                  1.718112,
                  1.914282,
                  1.97596,
                  1.897733,
                  1.899559,
                  1.965731,
                  1.963438,
                  1.810937,
                  1.760376,
                  1.82478,
                  1.929595,
                  1.857918,
                  1.840478,
                  1.842404,
                  1.752909,
                  1.749157,
                  1.752907,
                  1.69421,
                  1.684517,
                  1.683768,
                  1.68527,
                  1.786389,
                  1.944052,
                  1.945556,
                  1.661364,
                  1.489256,
                  1.50039,
                  1.618363,
                  1.575336,
                  1.605139,
                  1.643679,
                  1.619944,
                  1.516993,
                  1.491709,
                  1.602242,
                  1.648381,
                  1.656196,
                  1.604991,
                  1.43162,
                  1.481933,
                  1.6594,
                  1.787716,
                  1.698937,
                  1.5561,
                  1.432053,
                  1.393095,
                  1.292192,
                  1.349879,
                  1.570896,
                  1.624412,
                  1.490152,
                  1.386635,
                  1.544493,
                  1.375264,
                  1.336488,
                  1.492382,
                  1.399869,
                  1.315378,
                  1.324429,
                  1.429999,
                  1.564128,
                  1.601936,
                  1.447629,
                  1.054343,
                  1.364812,
                  1.655835,
                  1.328742,
                  1.435601,
                  1.503703,
                  1.428643,
                  1.194479,
                  1.307349,
                  1.403526,
                  1.322945,
                  1.166674,
                  1.330102,
                  1.47483,
                  1.292261,
                  1.39343,
                  1.407043,
                  1.305317,
                  1.250711,
                  1.317699,
                  1.383538,
                  1.398944,
                  1.362393,
                  1.223036,
                  1.17193,
                  1.445217,
                  1.359611,
                  1.227348,
                  1.136704,
                  1.159582,
                  1.213317,
                  1.204874,
                  1.11254,
                  0.8826326,
                  0.9969454,
                  1.288492,
                  1.288752,
                  1.27291,
                  1.127581,
                  0.9784149,
                  1.392815,
                  1.381127,
                  1.122976,
                  0.8849605,
                  1.084449,
                  1.180662,
                  1.248811,
                  1.306772,
                  0.9161538,
                  0.9186045,
                  1.135863,
                  1.162749,
                  1.181102,
                  1.192599,
                  1.183303,
                  1.195993,
                  1.00457,
                  0.9602114,
                  1.181127,
                  1.24796,
                  1.30417,
                  1.278985,
                  1.115724,
                  0.8417686,
                  0.8733228,
                  1.005001,
                  0.8996772,
                  1.025954,
                  1.074267,
                  0.9811866,
                  0.7677387,
                  0.9035331,
                  0.9279714,
                  0.8759701,
                  1.171316,
                  0.8117499,
                  0.7140032,
                  1.00358,
                  0.9438224,
                  1.082769,
                  1.074274,
                  0.8038026,
                  0.6155118,
                  0.9278146,
                  1.207461,
                  1.256825,
                  0.9412324,
                  0.8608429,
                  0.8705773,
                  0.8372687,
                  1.03687,
                  0.9893237,
                  0.891671,
                  0.9347397,
                  0.9869843,
                  0.9519254,
                  0.9014441,
                  0.7996778,
                  0.7769843,
                  0.7046957,
                  0.76756,
                  1.122166,
                  0.7879847,
                  0.7782595,
                  0.8986726,
                  0.9479797,
                  0.9855995,
                  0.9894857,
                  0.9513921,
                  0.7809696,
                  0.8696616,
                  1.012127,
                  1.009087,
                  0.915571,
                  0.9884008,
                  0.6256918,
                  0.5465716,
                  0.9736684,
                  0.7282777,
                  0.7317556,
                  0.8346272,
                  0.8478439,
                  0.8434065,
                  0.843594,
                  0.7389786,
                  0.5909343,
                  0.6570157,
                  0.6477419,
                  0.7256101,
                  0.8407224,
                  0.8433197,
                  0.7276873,
                  0.6372619,
                  0.6134918,
                  0.6195889,
                  0.7585407,
                  0.6417307,
                  0.4543971,
                  0.5664328,
                  0.7466314,
                  0.7756895,
                  0.6854251,
                  0.738088,
                  0.6869322,
                  0.7156651,
                  0.7350439,
                  0.6854306,
                  0.7559776,
                  0.8573254,
                  0.9233795,
                  0.9341618,
                  0.7594411,
                  0.7206954,
                  0.6804583,
                  0.6084991,
                  0.4953628,
                  0.481994,
                  0.7171096,
                  0.8678558,
                  0.5808629,
                  0.5562192,
                  0.7178537,
                  0.7985175,
                  0.7287581,
                  0.903405,
                  0.7264922,
                  0.5889736,
                  0.6197414,
                  0.6947944,
                  0.5595474,
                  0.5263013,
                  0.6813973,
                  0.9063185,
                  0.7234648,
                  0.6546557,
                  0.6705526,
                  0.6698822,
                  0.8246727,
                  0.7205232,
                  0.5998169,
                  0.552977,
                  0.5330008,
                  0.6531622,
                  0.7210347,
                  0.6592286,
                  0.5080322,
                  0.6409748,
                  0.6888316,
                  0.6254974,
                  0.5699112,
                  0.6250104,
                  0.6293615,
                  0.7984708,
                  0.6915941,
                  0.2281482,
                  0.4472542,
                  0.6133213,
                  0.6716955,
                  0.6670082,
                  0.6482727,
                  0.5484508,
                  0.6463063,
                  0.6597139,
                  0.4617012,
                  0.4248869,
                  0.6212457,
                  0.6525557,
                  0.5773138,
                  0.6408876,
                  0.592549,
                  0.2376308,
                  0.3242323,
                  0.8915619,
                  0.7043886,
                  0.5552667,
                  0.5814615,
                  0.7649477,
                  0.938997,
                  0.5460376,
                  0.3600363,
                  0.5025372,
                  0.7358634,
                  0.6982454,
                  0.5475227,
                  0.7214365,
                  0.6869746,
                  0.4098536,
                  0.5491688,
                  0.5935586,
                  0.6929902,
                  0.7178783,
                  0.5999061,
                  0.5585763,
                  0.5613838,
                  0.5035352,
                  0.5117356,
                  0.6718898,
                  0.379759,
                  0.449662,
                  0.4627292,
                  0.4118748,
                  0.5492713,
                  0.5227129,
                  0.3889914,
                  0.2241173,
                  0.1217958,
                  0.1726907,
                  0.3586873,
                  0.2736408,
                  0.2023049,
                  0.3368893,
                  0.6126128,
                  0.1981522,
                  0.2059213,
                  0.3459629,
                  0.3752327,
                  0.4053257,
                  0.462098,
                  0.3275299,
                  0.3418579,
                  0.5205073,
                  0.4430806,
                  0.2547025,
                  0.5570813,
                  0.6662886,
                  0.3894525,
                  0.3309531,
                  0.1741862,
                  0.2978927,
                  0.3096274,
                  0.2059552,
                  0.5345603,
                  0.2212446,
                  0.3689615,
                  0.5799181,
                  0.536433,
                  0.2754109,
                  0.1789933,
                  0.1268642,
                  0.2647145,
                  0.4195003,
                  0.3256834,
                  0.3035527,
                  0.4037853,
                  0.3689803,
                  0.273386,
                  0.270803,
                  0.2769508,
                  0.1836715,
                  0.3418005,
                  0.4692464,
                  0.3883848,
                  0.4404773,
                  0.6088374,
                  0.4685263,
                  0.3141857,
                  0.2684511,
                  0.1349166,
                  0.1105135,
                  0.1514483,
                  0.2409163,
                  0.3295186,
                  0.3637803,
                  0.3115333,
                  0.2109037,
                  0.1276475,
                  0.1583572,
                  0.2847241,
                  0.3260764,
                  0.3312115,
                  0.32588,
                  0.3398986,
                  0.3719504,
                  0.4033794,
                  0.4455171,
                  0.3959199,
                  0.3165003,
                  0.3835742,
                  0.5367514,
                  0.3939498,
                  0.5998173,
                  0.5947903,
                  0.6494163,
                  0.6962684,
                  0.5088723,
                  0.2518494,
                  0.60699,
                  0.6495379,
                  0.5691409,
                  0.5969515,
                  0.5965679,
                  0.6790279,
                  0.5580472,
                  0.5091125,
                  0.5274881,
                  0.5473729,
                  0.6655331,
                  0.4495354,
                  0.4864275,
                  0.4523085,
                  0.3129368,
                  0.2483905,
                  0.2060741,
                  0.2435039,
                  0.4030672,
                  0.5694275,
                  0.4669261,
                  0.02348081,
                  0.033008229,
                  0.4172375,
                  0.3327368,
                  0.1699003,
                  0.1666495,
                  0.1658619,
                  0.2748393,
                  -0.08402542,
                  0.2529038,
                  0.4315164,
                  0.2050244,
                  0.1672718,
                  -0.01693064,
                  0.019199479,
                  0.1872151,
                  0.2328002,
                  0.2940784,
                  0.5708831,
                  0.2394789,
                  0.003154282,
                  0.1882127,
                  0.3788125,
                  0.3754132,
                  0.2864938,
                  0.2949107,
                  0.1375542,
                  0.052279271,
                  0.04874032,
                  0.080219179,
                  0.1695149,
                  0.4282146,
                  0.319055,
                  0.3223596,
                  0.3029552,
                  0.20006,
                  0.1342418,
                  0.2816015,
                  0.1647246,
                  0.0094810557,
                  0.1439684,
                  0.1869968,
                  0.1467414,
                  0.2683122,
                  0.2250252,
                  0.4440556,
                  0.3119861,
                  0.141892,
                  0.1876943,
                  0.1944923,
                  -0.2307455,
                  0.3517825,
                  0.344756,
                  0.1990452,
                  0.030720539,
                  0.1109295,
                  0.4500666,
                  0.1511576,
                  0.2419368,
                  0.062377039,
                  0.1252555,
                  0.1279446,
                  0.022222159,
                  0.1665741,
                  0.18863,
                  0.01555255,
                  0.1886635,
                  0.1430227,
                  0.2468413,
                  0.4341466,
                  -0.0089294733,
                  0.3599542,
                  0.2318953,
                  0.1943944,
                  0.2847987,
                  0.230937,
                  0.1094994,
                  0.243576,
                  0.2601331,
                  0.1399106,
                  -0.083678953,
                  0.2656198,
                  0.2029157,
                  -0.3045738,
                  -0.090253823,
                  0.082359567,
                  0.2147021,
                  -0.1603955,
                  0.049146499,
                  0.082036473,
                  -0.2178572,
                  -0.075626381,
                  0.3423602,
                  0.2133233,
                  0.03462426,
                  0.072717682,
                  0.079795919,
                  0.06839209,
                  0.1026853,
                  -0.035204168,
                  0.1909862,
                  0.090284787,
                  0.03992844,
                  0.062638737,
                  0.1117101,
                  0.1311464,
                  0.1009888,
                  0.1503767,
                  -0.04957284,
                  0.2664327,
                  0.089105964,
                  -0.1476603,
                  0.075981051,
                  0.3631851,
                  0.007632935,
                  0.3198318,
                  0.3881311,
                  0.2143805,
                  -0.083009318,
                  -0.2259054,
                  -0.1315474,
                  0.1122018,
                  0.3961044,
                  0.3253109,
                  -0.001475386,
                  0.2187186,
                  0.033953309,
                  0.1451181,
                  0.2406277,
                  -0.05108013,
                  0.1596644,
                  0.3447788,
                  0.074240662,
                  -0.045131929,
                  0.037558079,
                  0.055633049,
                  0.1032594,
                  0.146901,
                  -0.0420366,
                  -0.094338737,
                  0.01456984,
                  0.1608388,
                  -0.1544802,
                  -0.1864524,
                  0.027466141,
                  0.1232711,
                  0.1081738,
                  0.2199612,
                  0.08708743,
                  0.3595799,
                  -0.093682803,
                  0.255425,
                  0.1241691,
                  -0.1014568,
                  0.024954651,
                  0.078164801,
                  0.3323588,
                  0.02940454,
                  0.2946342,
                  -0.01271094,
                  0.088325627,
                  0.1585329,
                  0.1514379,
                  0.073715441,
                  -0.056609649,
                  0.071253993,
                  0.1638045,
                  0.2173651,
                  0.1447964,
                  0.1374571,
                  0.01455494,
                  -0.2240384,
                  -0.217186,
                  0.02441567,
                  0.1355952,
                  0.1732742,
                  0.05413077,
                  0.065296069,
                  0.2027809,
                  0.1012308,
                  -0.1121485,
                  -0.097009771,
                  0.074335247,
                  0.1051085,
                  -0.00061224081,
                  0.2080078,
                  0.02436929,
                  0.07035137,
                  0.02650051,
                  0.2209447,
                  0.1794785,
                  0.053752389,
                  0.083263174,
                  0.1450674,
                  0.3357343,
                  0.2365036,
                  0.1086949,
                  0.095899917,
                  0.03997834,
                  -0.072856441,
                  0.01560554,
                  0.1305105,
                  0.033086829,
                  -0.05489767,
                  0.2426439,
                  0.3738545,
                  0.5229788,
                  -0.05857417,
                  -0.2235729,
                  -0.001836838,
                  0.131584,
                  0.2339657,
                  0.3745098,
                  0.3632835,
                  0.1783762,
                  0.094020039,
                  0.045925681,
                  0.1003432,
                  -0.1121997,
                  0.1006355,
                  0.2046529,
                  0.111878,
                  0.1717956,
                  0.2812821,
                  0.2323662,
                  0.261194,
                  0.1048508,
                  -0.085128233,
                  0.1376368,
                  0.1289762,
                  -0.060882781,
                  0.066066712,
                  0.2046158,
                  0.02402872,
                  0.075254872,
                  0.3313443,
                  0.057622191,
                  0.1637827,
                  -0.1958156,
                  0.005394836,
                  0.087855197,
                  0.0336034,
                  -0.036693379,
                  -0.2146827,
                  -0.162753,
                  0.0081555983,
                  -0.1683117,
                  -0.1650104,
                  0.4644221,
                  0.067808531,
                  0.042820308,
                  -0.083884969,
                  0.5847668,
                  0.280902,
                  0.2135878,
                  0.4614256,
                  0.1686933,
                  0.2188486,
                  0.4117186,
                  0.2721544,
                  0.093794443,
                  0.036106162,
                  0.2572441,
                  0.1430096,
                  0.096697241,
                  0.043851431,
                  0.1339046,
                  -0.0052449899,
                  -0.02251935,
                  0.2470093,
                  0.3089384,
                  0.1324045,
                  0.062706649,
                  0.2735738,
                  0.472789,
                  0.2973891,
                  0.093509257,
                  0.088831097,
                  0.1303168,
                  0.138402,
                  0.0811961,
                  0.2349605,
                  0.1641177,
                  0.4848595,
                  0.1660814,
                  -0.017359979,
                  0.045193952,
                  -0.071077242,
                  -0.1592027,
                  -0.093766898,
                  -0.0091644023,
                  0.151934,
                  -0.030310599,
                  0.1232738,
                  0.1415349,
                  0.062620804,
                  0.0088774934,
                  -0.02566335,
                  0.1694803,
                  0.1467609,
                  0.2642339,
                  0.2532085,
                  -0.01490012,
                  -0.05509894,
                  0.1166292,
                  0.2278841,
                  0.1399031,
                  -0.2397418,
                  -0.2542392,
                  0.039158389,
                  0.097954437,
                  -0.1746994,
                  0.1105336,
                  -0.02130861,
                  0.0092508299,
                  -0.1716649,
                  0.075277053,
                  -0.067566708,
                  -0.068739839,
                  0.2940619,
                  0.1897599,
                  0.1913133,
                  0.3991085,
                  0.253447,
                  0.078415081,
                  -0.0038176549,
                  -0.056150179,
                  0.3687564,
                  -0.1588725,
                  0.3705568,
                  0.06669677,
                  0.083930977,
                  0.2253888,
                  0.099726267,
                  0.1789837,
                  0.532623,
                  0.19347,
                  0.1580777,
                  -0.09607242,
                  0.1128428,
                  0.1416417,
                  0.3298153,
                  0.2898736,
                  0.0019901581,
                  0.1889573,
                  0.1528063,
                  -0.070606388,
                  0.03994837,
                  0.00027315749,
                  -0.2065863,
                  -0.2686919,
                  0.2642388,
                  -0.1394236,
                  -0.1848295,
                  -0.09730494,
                  0.082506672,
                  0.1780133,
                  0.2486131,
                  -0.1583028,
                  0.050765101,
                  0.1684431,
                  0.2507182,
                  -0.040603839,
                  0.3929583,
                  0.1621324,
                  -0.042034321,
                  0.134128,
                  -0.1886929,
                  -0.0623479,
                  0.2631392,
                  -0.0087398617,
                  -0.1145156,
                  -0.01671065
                ]
              }
            ]
          }
        },
        "hasAxisType": "y-axis"
      }
    ]
  }
}
